t,predict_cpu,update_cpu,quat_x,quat_y,quat_z,quat_w,accel_x,accel_y,accel_z,of_x,of_y,of_z,x_x,x_y,x_z,x_vx,x_vy,x_vz,dt,P_0,P_1,P_2,P_3,P_4,P_5,P_6,P_7,P_8,P_9,P_10,P_11,P_12,P_13,P_14,P_15,P_16,P_17,P_18,P_19,P_20,P_21,P_22,P_23,P_24,P_25,P_26,P_27,P_28,P_29,P_30,P_31,P_32,P_33,P_34,P_35
77.1017030,1.1497501,,-0.9310485,-0.3648869,0.0000721,0.0024742,-0.0013473,0.0063896,-0.0026469,,,,1.6792129,-4.2830935,-13.8897667,0.0000000,0.0000000,0.0000000,0.0229950,0.0002009,0.0000000,0.0000000,0.0000201,0.0000000,0.0000000,0.0000000,0.0002009,0.0000000,0.0000000,0.0000201,0.0000000,0.0000000,0.0000000,0.0002009,0.0000000,0.0000000,0.0000201,0.0000201,0.0000000,0.0000000,0.0000040,0.0000000,0.0000000,0.0000000,0.0000201,0.0000000,0.0000000,0.0000040,0.0000000,0.0000000,0.0000000,0.0000201,0.0000000,0.0000000,0.0000040
77.1227540,1.0501001,,-0.9310485,-0.3648870,0.0000607,0.0024635,-0.0010323,0.0033016,0.0006297,,,,1.6792129,-4.2830935,-13.8897667,0.0000000,0.0000000,0.0000000,0.0210020,0.0002018,0.0000000,0.0000000,0.0000202,0.0000000,0.0000000,0.0000000,0.0002018,0.0000000,0.0000000,0.0000202,0.0000000,0.0000000,0.0000000,0.0002018,0.0000000,0.0000000,0.0000202,0.0000202,0.0000000,0.0000000,0.0000040,0.0000000,0.0000000,0.0000000,0.0000202,0.0000000,0.0000000,0.0000040,0.0000000,0.0000000,0.0000000,0.0000202,0.0000000,0.0000000,0.0000040
77.1439540,1.0504000,,-0.9310485,-0.3648870,0.0000500,0.0024617,-0.0001499,0.0000563,0.0010473,,,,1.6792129,-4.2830935,-13.8897667,0.0000000,0.0000000,0.0000000,0.0210080,0.0002026,0.0000000,0.0000000,0.0000202,0.0000000,0.0000000,0.0000000,0.0002026,0.0000000,0.0000000,0.0000202,0.0000000,0.0000000,0.0000000,0.0002026,0.0000000,0.0000000,0.0000202,0.0000202,0.0000000,0.0000000,0.0000040,0.0000000,0.0000000,0.0000000,0.0000202,0.0000000,0.0000000,0.0000040,0.0000000,0.0000000,0.0000000,0.0000202,0.0000000,0.0000000,0.0000040
77.1658480,,1.0000100,-0.9310485,-0.3648870,0.0000393,0.0024546,,,,0.0000000,0.0000000,0.0000000,1.6792129,-4.2830935,-13.8897667,0.0000000,0.0000000,0.0000000,0.1000010,0.0001986,0.0000000,0.0000000,0.0000198,0.0000000,0.0000000,0.0000000,0.0001986,0.0000000,0.0000000,0.0000198,0.0000000,0.0000000,0.0000000,0.0001986,0.0000000,0.0000000,0.0000198,0.0000198,0.0000000,0.0000000,0.0000040,0.0000000,0.0000000,0.0000000,0.0000198,0.0000000,0.0000000,0.0000040,0.0000000,0.0000000,0.0000000,0.0000198,0.0000000,0.0000000,0.0000040
77.1794020,1.0497000,,-0.9310485,-0.3648870,0.0000393,0.0024546,-0.0009371,0.0052543,-0.0016736,,,,1.6792129,-4.2830935,-13.8897667,0.0000000,0.0000000,0.0000000,0.0209940,0.0001994,0.0000000,0.0000000,0.0000199,0.0000000,0.0000000,0.0000000,0.0001994,0.0000000,0.0000000,0.0000199,0.0000000,0.0000000,0.0000000,0.0001994,0.0000000,0.0000000,0.0000199,0.0000199,0.0000000,0.0000000,0.0000040,0.0000000,0.0000000,0.0000000,0.0000199,0.0000000,0.0000000,0.0000040,0.0000000,0.0000000,0.0000000,0.0000199,0.0000000,0.0000000,0.0000040
77.1929680,1.4000001,,-0.9310486,-0.3648871,0.0000237,0.0024286,0.0025756,0.0053585,-0.0003485,,,,1.6792129,-4.2830935,-13.8897667,0.0000000,0.0000000,0.0000000,0.0280000,0.0002006,0.0000000,0.0000000,0.0000200,0.0000000,0.0000000,0.0000000,0.0002006,0.0000000,0.0000000,0.0000200,0.0000000,0.0000000,0.0000000,0.0002006,0.0000000,0.0000000,0.0000200,0.0000200,0.0000000,0.0000000,0.0000040,0.0000000,0.0000000,0.0000000,0.0000200,0.0000000,0.0000000,0.0000040,0.0000000,0.0000000,0.0000000,0.0000200,0.0000000,0.0000000,0.0000040
77.2127210,1.0003999,,-0.9310486,-0.3648871,0.0000179,0.0024027,0.0009216,0.0083173,0.0010464,,,,1.6792129,-4.2830935,-13.8897667,0.0000000,0.0000000,0.0000000,0.0200080,0.0002014,0.0000000,0.0000000,0.0000201,0.0000000,0.0000000,0.0000000,0.0002014,0.0000000,0.0000000,0.0000201,0.0000000,0.0000000,0.0000000,0.0002014,0.0000000,0.0000000,0.0000201,0.0000201,0.0000000,0.0000000,0.0000040,0.0000000,0.0000000,0.0000000,0.0000201,0.0000000,0.0000000,0.0000040,0.0000000,0.0000000,0.0000000,0.0000201,0.0000000,0.0000000,0.0000040
77.2337730,1.0495000,,-0.9310487,-0.3648872,0.0000084,0.0023794,0.0010711,0.0046470,0.0010115,,,,1.6792129,-4.2830935,-13.8897667,0.0000000,0.0000000,0.0000000,0.0209900,0.0002022,0.0000000,0.0000000,0.0000202,0.0000000,0.0000000,0.0000000,0.0002022,0.0000000,0.0000000,0.0000202,0.0000000,0.0000000,0.0000000,0.0002022,0.0000000,0.0000000,0.0000202,0.0000202,0.0000000,0.0000000,0.0000040,0.0000000,0.0000000,0.0000000,0.0000202,0.0000000,0.0000000,0.0000040,0.0000000,0.0000000,0.0000000,0.0000202,0.0000000,0.0000000,0.0000040
77.2550060,1.0499500,,-0.9310488,-0.3648872,0.0000155,0.0023677,-0.0020050,-0.0001103,0.0024589,,,,1.6792129,-4.2830935,-13.8897667,0.0000000,0.0000000,0.0000000,0.0209990,0.0002031,0.0000000,0.0000000,0.0000203,0.0000000,0.0000000,0.0000000,0.0002031,0.0000000,0.0000000,0.0000203,0.0000000,0.0000000,0.0000000,0.0002031,0.0000000,0.0000000,0.0000203,0.0000203,0.0000000,0.0000000,0.0000040,0.0000000,0.0000000,0.0000000,0.0000203,0.0000000,0.0000000,0.0000040,0.0000000,0.0000000,0.0000000,0.0000203,0.0000000,0.0000000,0.0000040
77.2709920,,1.0000299,-0.9310488,-0.3648872,0.0000155,0.0023677,,,,0.0000000,0.0000000,0.0000000,1.6792129,-4.2830935,-13.8897667,0.0000000,0.0000000,0.0000000,0.1000030,0.0001990,0.0000000,0.0000000,0.0000199,0.0000000,0.0000000,0.0000000,0.0001990,0.0000000,0.0000000,0.0000199,0.0000000,0.0000000,0.0000000,0.0001990,0.0000000,0.0000000,0.0000199,0.0000199,0.0000000,0.0000000,0.0000040,0.0000000,0.0000000,0.0000000,0.0000199,0.0000000,0.0000000,0.0000040,0.0000000,0.0000000,0.0000000,0.0000199,0.0000000,0.0000000,0.0000040
77.2846500,1.1000500,,-0.9310488,-0.3648871,0.0000488,0.0023762,-0.0037491,-0.0017107,-0.0002354,,,,1.6792129,-4.2830935,-13.8897667,0.0000000,0.0000000,0.0000000,0.0220010,0.0001999,0.0000000,0.0000000,0.0000200,0.0000000,0.0000000,0.0000000,0.0001999,0.0000000,0.0000000,0.0000200,0.0000000,0.0000000,0.0000000,0.0001999,0.0000000,0.0000000,0.0000200,0.0000200,0.0000000,0.0000000,0.0000040,0.0000000,0.0000000,0.0000000,0.0000200,0.0000000,0.0000000,0.0000040,0.0000000,0.0000000,0.0000000,0.0000200,0.0000000,0.0000000,0.0000040
77.2979610,1.0499500,,-0.9310488,-0.3648871,0.0000558,0.0023790,0.0000023,-0.0000772,-0.0052447,,,,1.6792129,-4.2830935,-13.8897667,0.0000000,0.0000000,0.0000000,0.0209990,0.0002007,0.0000000,0.0000000,0.0000201,0.0000000,0.0000000,0.0000000,0.0002007,0.0000000,0.0000000,0.0000201,0.0000000,0.0000000,0.0000000,0.0002007,0.0000000,0.0000000,0.0000201,0.0000201,0.0000000,0.0000000,0.0000040,0.0000000,0.0000000,0.0000000,0.0000201,0.0000000,0.0000000,0.0000040,0.0000000,0.0000000,0.0000000,0.0000201,0.0000000,0.0000000,0.0000040
77.3177190,1.0006001,,-0.9310488,-0.3648871,0.0000564,0.0023787,-0.0022724,0.0024410,0.0022605,,,,1.6792129,-4.2830935,-13.8897667,0.0000000,0.0000000,0.0000000,0.0200120,0.0002015,0.0000000,0.0000000,0.0000201,0.0000000,0.0000000,0.0000000,0.0002015,0.0000000,0.0000000,0.0000201,0.0000000,0.0000000,0.0000000,0.0002015,0.0000000,0.0000000,0.0000201,0.0000201,0.0000000,0.0000000,0.0000040,0.0000000,0.0000000,0.0000000,0.0000201,0.0000000,0.0000000,0.0000040,0.0000000,0.0000000,0.0000000,0.0000201,0.0000000,0.0000000,0.0000040
77.3387800,1.0494500,,-0.9310488,-0.3648871,0.0000627,0.0023785,-0.0038904,0.0015104,0.0003978,,,,1.6792129,-4.2830935,-13.8897667,0.0000000,0.0000000,0.0000000,0.0209890,0.0002024,0.0000000,0.0000000,0.0000202,0.0000000,0.0000000,0.0000000,0.0002024,0.0000000,0.0000000,0.0000202,0.0000000,0.0000000,0.0000000,0.0002024,0.0000000,0.0000000,0.0000202,0.0000202,0.0000000,0.0000000,0.0000040,0.0000000,0.0000000,0.0000000,0.0000202,0.0000000,0.0000000,0.0000040,0.0000000,0.0000000,0.0000000,0.0000202,0.0000000,0.0000000,0.0000040
77.3597890,1.0499500,,-0.9310488,-0.3648871,0.0000628,0.0023515,-0.0015103,0.0034331,0.0031286,,,,1.6792129,-4.2830935,-13.8897667,0.0000000,0.0000000,0.0000000,0.0209990,0.0002032,0.0000000,0.0000000,0.0000203,0.0000000,0.0000000,0.0000000,0.0002032,0.0000000,0.0000000,0.0000203,0.0000000,0.0000000,0.0000000,0.0002032,0.0000000,0.0000000,0.0000203,0.0000203,0.0000000,0.0000000,0.0000040,0.0000000,0.0000000,0.0000000,0.0000203,0.0000000,0.0000000,0.0000040,0.0000000,0.0000000,0.0000000,0.0000203,0.0000000,0.0000000,0.0000040
77.3757260,,0.9999500,-0.9310488,-0.3648871,0.0000628,0.0023515,,,,0.0000000,0.0000000,0.0000000,1.6792129,-4.2830935,-13.8897667,0.0000000,0.0000000,0.0000000,0.0999950,0.0001992,0.0000000,0.0000000,0.0000199,0.0000000,0.0000000,0.0000000,0.0001992,0.0000000,0.0000000,0.0000199,0.0000000,0.0000000,0.0000000,0.0001992,0.0000000,0.0000000,0.0000199,0.0000199,0.0000000,0.0000000,0.0000040,0.0000000,0.0000000,0.0000000,0.0000199,0.0000000,0.0000000,0.0000040,0.0000000,0.0000000,0.0000000,0.0000199,0.0000000,0.0000000,0.0000040
77.3892040,1.1000000,,-0.9310489,-0.3648872,0.0000285,0.0023206,0.0018236,0.0094680,0.0120623,,,,1.6792129,-4.2830935,-13.8897667,0.0000000,0.0000000,0.0000000,0.0220000,0.0002001,0.0000000,0.0000000,0.0000200,0.0000000,0.0000000,0.0000000,0.0002001,0.0000000,0.0000000,0.0000200,0.0000000,0.0000000,0.0000000,0.0002001,0.0000000,0.0000000,0.0000200,0.0000200,0.0000000,0.0000000,0.0000040,0.0000000,0.0000000,0.0000000,0.0000200,0.0000000,0.0000000,0.0000040,0.0000000,0.0000000,0.0000000,0.0000200,0.0000000,0.0000000,0.0000040
77.4028930,1.0502001,,-0.9310489,-0.3648872,0.0000134,0.0023227,0.0032387,0.0022621,0.0082284,,,,1.6792129,-4.2830935,-13.8897667,0.0000000,0.0000000,0.0000000,0.0210040,0.0002009,0.0000000,0.0000000,0.0000201,0.0000000,0.0000000,0.0000000,0.0002009,0.0000000,0.0000000,0.0000201,0.0000000,0.0000000,0.0000000,0.0002009,0.0000000,0.0000000,0.0000201,0.0000201,0.0000000,0.0000000,0.0000040,0.0000000,0.0000000,0.0000000,0.0000201,0.0000000,0.0000000,0.0000040,0.0000000,0.0000000,0.0000000,0.0000201,0.0000000,0.0000000,0.0000040
77.4226300,1.0003999,,-0.9310489,-0.3648872,0.0000107,0.0023135,0.0034733,0.0003528,0.0016728,,,,1.6792129,-4.2830935,-13.8897667,0.0000000,0.0000000,0.0000000,0.0200080,0.0002017,0.0000000,0.0000000,0.0000201,0.0000000,0.0000000,0.0000000,0.0002017,0.0000000,0.0000000,0.0000201,0.0000000,0.0000000,0.0000000,0.0002017,0.0000000,0.0000000,0.0000201,0.0000201,0.0000000,0.0000000,0.0000040,0.0000000,0.0000000,0.0000000,0.0000201,0.0000000,0.0000000,0.0000040,0.0000000,0.0000000,0.0000000,0.0000201,0.0000000,0.0000000,0.0000040
77.4437650,1.0494500,,-0.9310488,-0.3648872,0.0000098,0.0023388,-0.0013075,-0.0037222,-0.0023374,,,,1.6792129,-4.2830935,-13.8897667,0.0000000,0.0000000,0.0000000,0.0209890,0.0002025,0.0000000,0.0000000,0.0000202,0.0000000,0.0000000,0.0000000,0.0002025,0.0000000,0.0000000,0.0000202,0.0000000,0.0000000,0.0000000,0.0002025,0.0000000,0.0000000,0.0000202,0.0000202,0.0000000,0.0000000,0.0000040,0.0000000,0.0000000,0.0000000,0.0000202,0.0000000,0.0000000,0.0000040,0.0000000,0.0000000,0.0000000,0.0000202,0.0000000,0.0000000,0.0000040
77.4682920,,1.0100000,-0.9310488,-0.3648872,0.0000259,0.0023421,,,,0.0000000,0.0000000,0.0000000,1.6792129,-4.2830935,-13.8897667,0.0000000,0.0000000,0.0000000,0.1010000,0.0001985,0.0000000,0.0000000,0.0000198,0.0000000,0.0000000,0.0000000,0.0001985,0.0000000,0.0000000,0.0000198,0.0000000,0.0000000,0.0000000,0.0001985,0.0000000,0.0000000,0.0000198,0.0000198,0.0000000,0.0000000,0.0000040,0.0000000,0.0000000,0.0000000,0.0000198,0.0000000,0.0000000,0.0000040,0.0000000,0.0000000,0.0000000,0.0000198,0.0000000,0.0000000,0.0000040
77.4817120,1.1002500,,-0.9310488,-0.3648872,0.0000259,0.0023421,-0.0051322,-0.0030742,-0.0019011,,,,1.6792129,-4.2830935,-13.8897667,0.0000000,0.0000000,0.0000000,0.0220050,0.0001994,0.0000000,0.0000000,0.0000199,0.0000000,0.0000000,0.0000000,0.0001994,0.0000000,0.0000000,0.0000199,0.0000000,0.0000000,0.0000000,0.0001994,0.0000000,0.0000000,0.0000199,0.0000199,0.0000000,0.0000000,0.0000040,0.0000000,0.0000000,0.0000000,0.0000199,0.0000000,0.0000000,0.0000040,0.0000000,0.0000000,0.0000000,0.0000199,0.0000000,0.0000000,0.0000040
77.4951060,1.4495500,,-0.9310488,-0.3648872,0.0000142,0.0023398,-0.0004833,-0.0032613,-0.0004623,,,,1.6792129,-4.2830935,-13.8897667,0.0000000,0.0000000,0.0000000,0.0289910,0.0002005,0.0000000,0.0000000,0.0000200,0.0000000,0.0000000,0.0000000,0.0002005,0.0000000,0.0000000,0.0000200,0.0000000,0.0000000,0.0000000,0.0002005,0.0000000,0.0000000,0.0000200,0.0000200,0.0000000,0.0000000,0.0000040,0.0000000,0.0000000,0.0000000,0.0000200,0.0000000,0.0000000,0.0000040,0.0000000,0.0000000,0.0000000,0.0000200,0.0000000,0.0000000,0.0000040
77.5149490,1.0004500,,-0.9310488,-0.3648873,-0.0000035,0.0023326,-0.0018362,0.0032140,-0.0029167,,,,1.6792129,-4.2830935,-13.8897667,0.0000000,0.0000000,0.0000000,0.0200090,0.0002013,0.0000000,0.0000000,0.0000201,0.0000000,0.0000000,0.0000000,0.0002013,0.0000000,0.0000000,0.0000201,0.0000000,0.0000000,0.0000000,0.0002013,0.0000000,0.0000000,0.0000201,0.0000201,0.0000000,0.0000000,0.0000040,0.0000000,0.0000000,0.0000000,0.0000201,0.0000000,0.0000000,0.0000040,0.0000000,0.0000000,0.0000000,0.0000201,0.0000000,0.0000000,0.0000040
77.5349460,0.9996000,,-0.9310488,-0.3648872,0.0000041,0.0023248,-0.0083415,-0.0023298,-0.0024349,,,,1.6792129,-4.2830935,-13.8897667,0.0000000,0.0000000,0.0000000,0.0199920,0.0002022,0.0000000,0.0000000,0.0000202,0.0000000,0.0000000,0.0000000,0.0002022,0.0000000,0.0000000,0.0000202,0.0000000,0.0000000,0.0000000,0.0002022,0.0000000,0.0000000,0.0000202,0.0000202,0.0000000,0.0000000,0.0000040,0.0000000,0.0000000,0.0000000,0.0000202,0.0000000,0.0000000,0.0000040,0.0000000,0.0000000,0.0000000,0.0000202,0.0000000,0.0000000,0.0000040
77.5548880,1.0007000,,-0.9310489,-0.3648872,0.0000133,0.0023023,-0.0035146,0.0070749,-0.0009733,,,,1.6792129,-4.2830935,-13.8897667,0.0000000,0.0000000,0.0000000,0.0200140,0.0002030,0.0000000,0.0000000,0.0000203,0.0000000,0.0000000,0.0000000,0.0002030,0.0000000,0.0000000,0.0000203,0.0000000,0.0000000,0.0000000,0.0002030,0.0000000,0.0000000,0.0000203,0.0000203,0.0000000,0.0000000,0.0000040,0.0000000,0.0000000,0.0000000,0.0000203,0.0000000,0.0000000,0.0000040,0.0000000,0.0000000,0.0000000,0.0000203,0.0000000,0.0000000,0.0000040
77.5700700,,1.0000100,-0.9310489,-0.3648872,0.0000133,0.0023023,,,,0.0000000,0.0000000,0.0000000,1.6792129,-4.2830935,-13.8897667,0.0000000,0.0000000,0.0000000,0.1000010,0.0001989,0.0000000,0.0000000,0.0000199,0.0000000,0.0000000,0.0000000,0.0001989,0.0000000,0.0000000,0.0000199,0.0000000,0.0000000,0.0000000,0.0001989,0.0000000,0.0000000,0.0000199,0.0000199,0.0000000,0.0000000,0.0000040,0.0000000,0.0000000,0.0000000,0.0000199,0.0000000,0.0000000,0.0000040,0.0000000,0.0000000,0.0000000,0.0000199,0.0000000,0.0000000,0.0000040
77.5829050,1.0995500,,-0.9310489,-0.3648872,0.0000169,0.0023036,-0.0008647,0.0020344,0.0090348,,,,1.6792129,-4.2830935,-13.8897667,0.0000000,0.0000000,0.0000000,0.0219910,0.0001998,0.0000000,0.0000000,0.0000200,0.0000000,0.0000000,0.0000000,0.0001998,0.0000000,0.0000000,0.0000200,0.0000000,0.0000000,0.0000000,0.0001998,0.0000000,0.0000000,0.0000200,0.0000200,0.0000000,0.0000000,0.0000040,0.0000000,0.0000000,0.0000000,0.0000200,0.0000000,0.0000000,0.0000040,0.0000000,0.0000000,0.0000000,0.0000200,0.0000000,0.0000000,0.0000040
77.5977570,1.0497501,,-0.9310489,-0.3648872,0.0000275,0.0022991,0.0009638,0.0048777,0.0069588,,,,1.6792129,-4.2830935,-13.8897667,0.0000000,0.0000000,0.0000000,0.0209950,0.0002006,0.0000000,0.0000000,0.0000200,0.0000000,0.0000000,0.0000000,0.0002006,0.0000000,0.0000000,0.0000200,0.0000000,0.0000000,0.0000000,0.0002006,0.0000000,0.0000000,0.0000200,0.0000200,0.0000000,0.0000000,0.0000040,0.0000000,0.0000000,0.0000000,0.0000200,0.0000000,0.0000000,0.0000040,0.0000000,0.0000000,0.0000000,0.0000200,0.0000000,0.0000000,0.0000040
77.6188090,1.0504500,,-0.9310489,-0.3648872,0.0000523,0.0022951,0.0006955,0.0043615,0.0051884,,,,1.6792129,-4.2830935,-13.8897667,0.0000000,0.0000000,0.0000000,0.0210090,0.0002015,0.0000000,0.0000000,0.0000201,0.0000000,0.0000000,0.0000000,0.0002015,0.0000000,0.0000000,0.0000201,0.0000000,0.0000000,0.0000000,0.0002015,0.0000000,0.0000000,0.0000201,0.0000201,0.0000000,0.0000000,0.0000040,0.0000000,0.0000000,0.0000000,0.0000201,0.0000000,0.0000000,0.0000040,0.0000000,0.0000000,0.0000000,0.0000201,0.0000000,0.0000000,0.0000040
77.6391070,1.0000501,,-0.9310489,-0.3648872,0.0000465,0.0022998,-0.0014299,0.0033709,0.0047915,,,,1.6792129,-4.2830935,-13.8897667,0.0000000,0.0000000,0.0000000,0.0200010,0.0002023,0.0000000,0.0000000,0.0000202,0.0000000,0.0000000,0.0000000,0.0002023,0.0000000,0.0000000,0.0000202,0.0000000,0.0000000,0.0000000,0.0002023,0.0000000,0.0000000,0.0000202,0.0000202,0.0000000,0.0000000,0.0000040,0.0000000,0.0000000,0.0000000,0.0000202,0.0000000,0.0000000,0.0000040,0.0000000,0.0000000,0.0000000,0.0000202,0.0000000,0.0000000,0.0000040
77.6588900,0.9999500,,-0.9310489,-0.3648872,0.0000230,0.0022950,0.0033363,0.0033334,0.0121614,,,,1.6792129,-4.2830935,-13.8897667,0.0000000,0.0000000,0.0000000,0.0199990,0.0002031,0.0000000,0.0000000,0.0000203,0.0000000,0.0000000,0.0000000,0.0002031,0.0000000,0.0000000,0.0000203,0.0000000,0.0000000,0.0000000,0.0002031,0.0000000,0.0000000,0.0000203,0.0000203,0.0000000,0.0000000,0.0000040,0.0000000,0.0000000,0.0000000,0.0000203,0.0000000,0.0000000,0.0000040,0.0000000,0.0000000,0.0000000,0.0000203,0.0000000,0.0000000,0.0000040
77.6746980,,1.0200000,-0.9310489,-0.3648872,0.0000230,0.0022950,,,,0.0000000,0.0000000,0.0000000,1.6792129,-4.2830935,-13.8897667,0.0000000,0.0000000,0.0000000,0.1020000,0.0001990,0.0000000,0.0000000,0.0000199,0.0000000,0.0000000,0.0000000,0.0001990,0.0000000,0.0000000,0.0000199,0.0000000,0.0000000,0.0000000,0.0001990,0.0000000,0.0000000,0.0000199,0.0000199,0.0000000,0.0000000,0.0000040,0.0000000,0.0000000,0.0000000,0.0000199,0.0000000,0.0000000,0.0000040,0.0000000,0.0000000,0.0000000,0.0000199,0.0000000,0.0000000,0.0000040
77.6886780,0.9999000,,-0.9310489,-0.3648873,0.0000203,0.0022766,-0.0018185,0.0093953,0.0077897,,,,1.6792129,-4.2830935,-13.8897667,0.0000000,0.0000000,0.0000000,0.0199980,0.0001998,0.0000000,0.0000000,0.0000200,0.0000000,0.0000000,0.0000000,0.0001998,0.0000000,0.0000000,0.0000200,0.0000000,0.0000000,0.0000000,0.0001998,0.0000000,0.0000000,0.0000200,0.0000200,0.0000000,0.0000000,0.0000040,0.0000000,0.0000000,0.0000000,0.0000200,0.0000000,0.0000000,0.0000040,0.0000000,0.0000000,0.0000000,0.0000200,0.0000000,0.0000000,0.0000040
77.7018880,1.1497000,,-0.9310489,-0.3648872,0.0000338,0.0022728,-0.0004667,0.0024393,0.0019417,,,,1.6792129,-4.2830935,-13.8897667,0.0000000,0.0000000,0.0000000,0.0229940,0.0002008,0.0000000,0.0000000,0.0000201,0.0000000,0.0000000,0.0000000,0.0002008,0.0000000,0.0000000,0.0000201,0.0000000,0.0000000,0.0000000,0.0002008,0.0000000,0.0000000,0.0000201,0.0000201,0.0000000,0.0000000,0.0000040,0.0000000,0.0000000,0.0000000,0.0000201,0.0000000,0.0000000,0.0000040,0.0000000,0.0000000,0.0000000,0.0000201,0.0000000,0.0000000,0.0000040
77.7227730,1.0500500,,-0.9310489,-0.3648872,0.0000478,0.0022628,-0.0000197,0.0013875,-0.0044002,,,,1.6792129,-4.2830935,-13.8897667,0.0000000,0.0000000,0.0000000,0.0210010,0.0002016,0.0000000,0.0000000,0.0000201,0.0000000,0.0000000,0.0000000,0.0002016,0.0000000,0.0000000,0.0000201,0.0000000,0.0000000,0.0000000,0.0002016,0.0000000,0.0000000,0.0000201,0.0000201,0.0000000,0.0000000,0.0000040,0.0000000,0.0000000,0.0000000,0.0000201,0.0000000,0.0000000,0.0000040,0.0000000,0.0000000,0.0000000,0.0000201,0.0000000,0.0000000,0.0000040
77.7451930,1.0504500,,-0.9310490,-0.3648872,0.0000553,0.0022455,-0.0007576,-0.0038000,0.0004854,,,,1.6792129,-4.2830935,-13.8897667,0.0000000,0.0000000,0.0000000,0.0210090,0.0002025,0.0000000,0.0000000,0.0000202,0.0000000,0.0000000,0.0000000,0.0002025,0.0000000,0.0000000,0.0000202,0.0000000,0.0000000,0.0000000,0.0002025,0.0000000,0.0000000,0.0000202,0.0000202,0.0000000,0.0000000,0.0000040,0.0000000,0.0000000,0.0000000,0.0000202,0.0000000,0.0000000,0.0000040,0.0000000,0.0000000,0.0000000,0.0000202,0.0000000,0.0000000,0.0000040
77.7638110,0.9998500,,-0.9310490,-0.3648872,0.0000687,0.0022309,0.0003613,-0.0032199,-0.0046401,,,,1.6792129,-4.2830935,-13.8897667,0.0000000,0.0000000,0.0000000,0.0199970,0.0002033,0.0000000,0.0000000,0.0000203,0.0000000,0.0000000,0.0000000,0.0002033,0.0000000,0.0000000,0.0000203,0.0000000,0.0000000,0.0000000,0.0002033,0.0000000,0.0000000,0.0000203,0.0000203,0.0000000,0.0000000,0.0000040,0.0000000,0.0000000,0.0000000,0.0000203,0.0000000,0.0000000,0.0000040,0.0000000,0.0000000,0.0000000,0.0000203,0.0000000,0.0000000,0.0000040
77.7796300,,1.0001900,-0.9310490,-0.3648872,0.0000687,0.0022309,,,,0.0000000,0.0000000,0.0000000,1.6792129,-4.2830935,-13.8897667,0.0000000,0.0000000,0.0000000,0.1000190,0.0001992,0.0000000,0.0000000,0.0000199,0.0000000,0.0000000,0.0000000,0.0001992,0.0000000,0.0000000,0.0000199,0.0000000,0.0000000,0.0000000,0.0001992,0.0000000,0.0000000,0.0000199,0.0000199,0.0000000,0.0000000,0.0000040,0.0000000,0.0000000,0.0000000,0.0000199,0.0000000,0.0000000,0.0000040,0.0000000,0.0000000,0.0000000,0.0000199,0.0000000,0.0000000,0.0000040
77.7935750,1.0000000,,-0.9310490,-0.3648872,0.0000742,0.0022306,-0.0025049,-0.0017015,-0.0013435,,,,1.6792129,-4.2830935,-13.8897667,0.0000000,0.0000000,0.0000000,0.0200000,0.0002000,0.0000000,0.0000000,0.0000200,0.0000000,0.0000000,0.0000000,0.0002000,0.0000000,0.0000000,0.0000200,0.0000000,0.0000000,0.0000000,0.0002000,0.0000000,0.0000000,0.0000200,0.0000200,0.0000000,0.0000000,0.0000040,0.0000000,0.0000000,0.0000000,0.0000200,0.0000000,0.0000000,0.0000040,0.0000000,0.0000000,0.0000000,0.0000200,0.0000000,0.0000000,0.0000040
77.8068970,1.1496000,,-0.9310490,-0.3648872,0.0000786,0.0022307,-0.0039380,0.0041923,-0.0001835,,,,1.6792129,-4.2830935,-13.8897667,0.0000000,0.0000000,0.0000000,0.0229920,0.0002009,0.0000000,0.0000000,0.0000201,0.0000000,0.0000000,0.0000000,0.0002009,0.0000000,0.0000000,0.0000201,0.0000000,0.0000000,0.0000000,0.0002009,0.0000000,0.0000000,0.0000201,0.0000201,0.0000000,0.0000000,0.0000040,0.0000000,0.0000000,0.0000000,0.0000201,0.0000000,0.0000000,0.0000040,0.0000000,0.0000000,0.0000000,0.0000201,0.0000000,0.0000000,0.0000040
77.8277840,1.0502001,,-0.9310490,-0.3648872,0.0000826,0.0022280,-0.0029379,0.0039577,-0.0044863,,,,1.6792129,-4.2830935,-13.8897667,0.0000000,0.0000000,0.0000000,0.0210040,0.0002018,0.0000000,0.0000000,0.0000202,0.0000000,0.0000000,0.0000000,0.0002018,0.0000000,0.0000000,0.0000202,0.0000000,0.0000000,0.0000000,0.0002018,0.0000000,0.0000000,0.0000202,0.0000202,0.0000000,0.0000000,0.0000040,0.0000000,0.0000000,0.0000000,0.0000202,0.0000000,0.0000000,0.0000040,0.0000000,0.0000000,0.0000000,0.0000202,0.0000000,0.0000000,0.0000040
77.8501950,1.0503500,,-0.9310490,-0.3648872,0.0000844,0.0022363,-0.0026897,0.0041075,-0.0005341,,,,1.6792129,-4.2830935,-13.8897667,0.0000000,0.0000000,0.0000000,0.0210070,0.0002026,0.0000000,0.0000000,0.0000202,0.0000000,0.0000000,0.0000000,0.0002026,0.0000000,0.0000000,0.0000202,0.0000000,0.0000000,0.0000000,0.0002026,0.0000000,0.0000000,0.0000202,0.0000202,0.0000000,0.0000000,0.0000040,0.0000000,0.0000000,0.0000000,0.0000202,0.0000000,0.0000000,0.0000040,0.0000000,0.0000000,0.0000000,0.0000202,0.0000000,0.0000000,0.0000040
77.8713620,,1.0098701,-0.9310491,-0.3648872,0.0000878,0.0022266,,,,0.0000000,0.0000000,0.0000000,1.6792129,-4.2830935,-13.8897667,0.0000000,0.0000000,0.0000000,0.1009870,0.0001986,0.0000000,0.0000000,0.0000198,0.0000000,0.0000000,0.0000000,0.0001986,0.0000000,0.0000000,0.0000198,0.0000000,0.0000000,0.0000000,0.0001986,0.0000000,0.0000000,0.0000198,0.0000198,0.0000000,0.0000000,0.0000040,0.0000000,0.0000000,0.0000000,0.0000198,0.0000000,0.0000000,0.0000040,0.0000000,0.0000000,0.0000000,0.0000198,0.0000000,0.0000000,0.0000040
77.8845460,0.9996000,,-0.9310491,-0.3648872,0.0000878,0.0022266,-0.0025503,0.0083022,-0.0012436,,,,1.6792129,-4.2830935,-13.8897667,0.0000000,0.0000000,0.0000000,0.0199920,0.0001994,0.0000000,0.0000000,0.0000199,0.0000000,0.0000000,0.0000000,0.0001994,0.0000000,0.0000000,0.0000199,0.0000000,0.0000000,0.0000000,0.0001994,0.0000000,0.0000000,0.0000199,0.0000199,0.0000000,0.0000000,0.0000040,0.0000000,0.0000000,0.0000000,0.0000199,0.0000000,0.0000000,0.0000040,0.0000000,0.0000000,0.0000000,0.0000199,0.0000000,0.0000000,0.0000040
77.8981140,1.4498501,,-0.9310491,-0.3648872,0.0000708,0.0022182,-0.0017863,0.0057456,-0.0028191,,,,1.6792129,-4.2830935,-13.8897667,0.0000000,0.0000000,0.0000000,0.0289970,0.0002005,0.0000000,0.0000000,0.0000200,0.0000000,0.0000000,0.0000000,0.0002005,0.0000000,0.0000000,0.0000200,0.0000000,0.0000000,0.0000000,0.0002005,0.0000000,0.0000000,0.0000200,0.0000200,0.0000000,0.0000000,0.0000040,0.0000000,0.0000000,0.0000000,0.0000200,0.0000000,0.0000000,0.0000040,0.0000000,0.0000000,0.0000000,0.0000200,0.0000000,0.0000000,0.0000040
77.9178260,1.0004500,,-0.9310491,-0.3648873,0.0000603,0.0022060,0.0039744,0.0056728,0.0007877,,,,1.6792129,-4.2830935,-13.8897667,0.0000000,0.0000000,0.0000000,0.0200090,0.0002013,0.0000000,0.0000000,0.0000201,0.0000000,0.0000000,0.0000000,0.0002013,0.0000000,0.0000000,0.0000201,0.0000000,0.0000000,0.0000000,0.0002013,0.0000000,0.0000000,0.0000201,0.0000201,0.0000000,0.0000000,0.0000040,0.0000000,0.0000000,0.0000000,0.0000201,0.0000000,0.0000000,0.0000040,0.0000000,0.0000000,0.0000000,0.0000201,0.0000000,0.0000000,0.0000040
77.9379680,0.9997500,,-0.9310491,-0.3648873,0.0000350,0.0022031,-0.0051539,0.0046446,0.0045443,,,,1.6792129,-4.2830935,-13.8897667,0.0000000,0.0000000,0.0000000,0.0199950,0.0002021,0.0000000,0.0000000,0.0000202,0.0000000,0.0000000,0.0000000,0.0002021,0.0000000,0.0000000,0.0000202,0.0000000,0.0000000,0.0000000,0.0002021,0.0000000,0.0000000,0.0000202,0.0000202,0.0000000,0.0000000,0.0000040,0.0000000,0.0000000,0.0000000,0.0000202,0.0000000,0.0000000,0.0000040,0.0000000,0.0000000,0.0000000,0.0000202,0.0000000,0.0000000,0.0000040
77.9578850,1.0000501,,-0.9310490,-0.3648873,0.0000270,0.0022202,0.0032214,-0.0038880,0.0061784,,,,1.6792129,-4.2830935,-13.8897667,0.0000000,0.0000000,0.0000000,0.0200010,0.0002030,0.0000000,0.0000000,0.0000203,0.0000000,0.0000000,0.0000000,0.0002030,0.0000000,0.0000000,0.0000203,0.0000000,0.0000000,0.0000000,0.0002030,0.0000000,0.0000000,0.0000203,0.0000203,0.0000000,0.0000000,0.0000040,0.0000000,0.0000000,0.0000000,0.0000203,0.0000000,0.0000000,0.0000040,0.0000000,0.0000000,0.0000000,0.0000203,0.0000000,0.0000000,0.0000040
77.9737190,,0.9999800,-0.9310490,-0.3648873,0.0000270,0.0022202,,,,0.0000000,0.0000000,0.0000000,1.6792129,-4.2830935,-13.8897667,0.0000000,0.0000000,0.0000000,0.0999980,0.0001989,0.0000000,0.0000000,0.0000199,0.0000000,0.0000000,0.0000000,0.0001989,0.0000000,0.0000000,0.0000199,0.0000000,0.0000000,0.0000000,0.0001989,0.0000000,0.0000000,0.0000199,0.0000199,0.0000000,0.0000000,0.0000040,0.0000000,0.0000000,0.0000000,0.0000199,0.0000000,0.0000000,0.0000040,0.0000000,0.0000000,0.0000000,0.0000199,0.0000000,0.0000000,0.0000040
77.9873710,1.0002000,,-0.9310490,-0.3648874,0.0000090,0.0022164,0.0042199,0.0059753,0.0021126,,,,1.6792129,-4.2830935,-13.8897667,0.0000000,0.0000000,0.0000000,0.0200040,0.0001997,0.0000000,0.0000000,0.0000200,0.0000000,0.0000000,0.0000000,0.0001997,0.0000000,0.0000000,0.0000200,0.0000000,0.0000000,0.0000000,0.0001997,0.0000000,0.0000000,0.0000200,0.0000200,0.0000000,0.0000000,0.0000040,0.0000000,0.0000000,0.0000000,0.0000200,0.0000000,0.0000000,0.0000040,0.0000000,0.0000000,0.0000000,0.0000200,0.0000000,0.0000000,0.0000040
78.0008050,1.1495500,,-0.9310491,-0.3648874,0.0000134,0.0021993,0.0015759,0.0057647,0.0052067,,,,1.6792129,-4.2830935,-13.8897667,0.0000000,0.0000000,0.0000000,0.0229910,0.0002006,0.0000000,0.0000000,0.0000200,0.0000000,0.0000000,0.0000000,0.0002006,0.0000000,0.0000000,0.0000200,0.0000000,0.0000000,0.0000000,0.0002006,0.0000000,0.0000000,0.0000200,0.0000200,0.0000000,0.0000000,0.0000040,0.0000000,0.0000000,0.0000000,0.0000200,0.0000000,0.0000000,0.0000040,0.0000000,0.0000000,0.0000000,0.0000200,0.0000000,0.0000000,0.0000040
78.0208610,1.0001000,,-0.9310491,-0.3648874,-0.0000028,0.0021831,0.0021841,0.0051407,-0.0017912,,,,1.6792129,-4.2830935,-13.8897667,0.0000000,0.0000000,0.0000000,0.0200020,0.0002014,0.0000000,0.0000000,0.0000201,0.0000000,0.0000000,0.0000000,0.0002014,0.0000000,0.0000000,0.0000201,0.0000000,0.0000000,0.0000000,0.0002014,0.0000000,0.0000000,0.0000201,0.0000201,0.0000000,0.0000000,0.0000040,0.0000000,0.0000000,0.0000000,0.0000201,0.0000000,0.0000000,0.0000040,0.0000000,0.0000000,0.0000000,0.0000201,0.0000000,0.0000000,0.0000040
78.0411070,1.0000000,,-0.9310491,-0.3648875,-0.0000285,0.0021758,0.0073329,-0.0007942,-0.0016280,,,,1.6792129,-4.2830935,-13.8897667,0.0000000,0.0000000,0.0000000,0.0200000,0.0002022,0.0000000,0.0000000,0.0000202,0.0000000,0.0000000,0.0000000,0.0002022,0.0000000,0.0000000,0.0000202,0.0000000,0.0000000,0.0000000,0.0002022,0.0000000,0.0000000,0.0000202,0.0000202,0.0000000,0.0000000,0.0000040,0.0000000,0.0000000,0.0000000,0.0000202,0.0000000,0.0000000,0.0000040,0.0000000,0.0000000,0.0000000,0.0000202,0.0000000,0.0000000,0.0000040
78.0608620,1.0000000,,-0.9310490,-0.3648875,-0.0000232,0.0021924,0.0035825,-0.0085987,-0.0061851,,,,1.6792129,-4.2830935,-13.8897667,0.0000000,0.0000000,0.0000000,0.0200000,0.0002030,0.0000000,0.0000000,0.0000203,0.0000000,0.0000000,0.0000000,0.0002030,0.0000000,0.0000000,0.0000203,0.0000000,0.0000000,0.0000000,0.0002030,0.0000000,0.0000000,0.0000203,0.0000203,0.0000000,0.0000000,0.0000040,0.0000000,0.0000000,0.0000000,0.0000203,0.0000000,0.0000000,0.0000040,0.0000000,0.0000000,0.0000000,0.0000203,0.0000000,0.0000000,0.0000040
78.0767920,,1.0201700,-0.9310490,-0.3648875,-0.0000232,0.0021924,,,,0.0000000,0.0000000,0.0000000,1.6792129,-4.2830935,-13.8897667,0.0000000,0.0000000,0.0000000,0.1020170,0.0001990,0.0000000,0.0000000,0.0000199,0.0000000,0.0000000,0.0000000,0.0001990,0.0000000,0.0000000,0.0000199,0.0000000,0.0000000,0.0000000,0.0001990,0.0000000,0.0000000,0.0000199,0.0000199,0.0000000,0.0000000,0.0000040,0.0000000,0.0000000,0.0000000,0.0000199,0.0000000,0.0000000,0.0000040,0.0000000,0.0000000,0.0000000,0.0000199,0.0000000,0.0000000,0.0000040
78.0906890,1.0000000,,-0.9310491,-0.3648875,-0.0000177,0.0021817,0.0058730,-0.0005686,-0.0006511,,,,1.6792129,-4.2830935,-13.8897667,0.0000000,0.0000000,0.0000000,0.0200000,0.0001998,0.0000000,0.0000000,0.0000200,0.0000000,0.0000000,0.0000000,0.0001998,0.0000000,0.0000000,0.0000200,0.0000000,0.0000000,0.0000000,0.0001998,0.0000000,0.0000000,0.0000200,0.0000200,0.0000000,0.0000000,0.0000040,0.0000000,0.0000000,0.0000000,0.0000200,0.0000000,0.0000000,0.0000040,0.0000000,0.0000000,0.0000000,0.0000200,0.0000000,0.0000000,0.0000040
78.1037360,1.1498500,,-0.9310491,-0.3648875,-0.0000122,0.0021776,-0.0015191,-0.0038777,-0.0000814,,,,1.6792129,-4.2830935,-13.8897667,0.0000000,0.0000000,0.0000000,0.0229970,0.0002007,0.0000000,0.0000000,0.0000201,0.0000000,0.0000000,0.0000000,0.0002007,0.0000000,0.0000000,0.0000201,0.0000000,0.0000000,0.0000000,0.0002007,0.0000000,0.0000000,0.0000201,0.0000201,0.0000000,0.0000000,0.0000040,0.0000000,0.0000000,0.0000000,0.0000201,0.0000000,0.0000000,0.0000040,0.0000000,0.0000000,0.0000000,0.0000201,0.0000000,0.0000000,0.0000040
78.1248200,1.0505000,,-0.9310491,-0.3648874,-0.0000039,0.0021896,0.0006443,-0.0042811,0.0009358,,,,1.6792129,-4.2830935,-13.8897667,0.0000000,0.0000000,0.0000000,0.0210100,0.0002016,0.0000000,0.0000000,0.0000201,0.0000000,0.0000000,0.0000000,0.0002016,0.0000000,0.0000000,0.0000201,0.0000000,0.0000000,0.0000000,0.0002016,0.0000000,0.0000000,0.0000201,0.0000201,0.0000000,0.0000000,0.0000040,0.0000000,0.0000000,0.0000000,0.0000201,0.0000000,0.0000000,0.0000040,0.0000000,0.0000000,0.0000000,0.0000201,0.0000000,0.0000000,0.0000040
78.1460640,1.0496000,,-0.9310491,-0.3648874,0.0000114,0.0022009,-0.0009443,0.0004229,-0.0019735,,,,1.6792129,-4.2830935,-13.8897667,0.0000000,0.0000000,0.0000000,0.0209920,0.0002024,0.0000000,0.0000000,0.0000202,0.0000000,0.0000000,0.0000000,0.0002024,0.0000000,0.0000000,0.0000202,0.0000000,0.0000000,0.0000000,0.0002024,0.0000000,0.0000000,0.0000202,0.0000202,0.0000000,0.0000000,0.0000040,0.0000000,0.0000000,0.0000000,0.0000202,0.0000000,0.0000000,0.0000040,0.0000000,0.0000000,0.0000000,0.0000202,0.0000000,0.0000000,0.0000040
78.1657850,1.0000000,,-0.9310491,-0.3648874,0.0000361,0.0021892,-0.0012046,0.0025079,-0.0029399,,,,1.6792129,-4.2830935,-13.8897667,0.0000000,0.0000000,0.0000000,0.0200000,0.0002032,0.0000000,0.0000000,0.0000203,0.0000000,0.0000000,0.0000000,0.0002032,0.0000000,0.0000000,0.0000203,0.0000000,0.0000000,0.0000000,0.0002032,0.0000000,0.0000000,0.0000203,0.0000203,0.0000000,0.0000000,0.0000040,0.0000000,0.0000000,0.0000000,0.0000203,0.0000000,0.0000000,0.0000040,0.0000000,0.0000000,0.0000000,0.0000203,0.0000000,0.0000000,0.0000040
78.1817990,,1.0197901,-0.9310491,-0.3648874,0.0000361,0.0021892,,,,0.0000000,0.0000000,0.0000000,1.6792129,-4.2830935,-13.8897667,0.0000000,0.0000000,0.0000000,0.1019790,0.0001992,0.0000000,0.0000000,0.0000199,0.0000000,0.0000000,0.0000000,0.0001992,0.0000000,0.0000000,0.0000199,0.0000000,0.0000000,0.0000000,0.0001992,0.0000000,0.0000000,0.0000199,0.0000199,0.0000000,0.0000000,0.0000040,0.0000000,0.0000000,0.0000000,0.0000199,0.0000000,0.0000000,0.0000040,0.0000000,0.0000000,0.0000000,0.0000199,0.0000000,0.0000000,0.0000040
78.1957030,1.0000000,,-0.9310491,-0.3648873,0.0000577,0.0021826,0.0003895,0.0023373,-0.0039113,,,,1.6792129,-4.2830935,-13.8897667,0.0000000,0.0000000,0.0000000,0.0200000,0.0002000,0.0000000,0.0000000,0.0000200,0.0000000,0.0000000,0.0000000,0.0002000,0.0000000,0.0000000,0.0000200,0.0000000,0.0000000,0.0000000,0.0002000,0.0000000,0.0000000,0.0000200,0.0000200,0.0000000,0.0000000,0.0000040,0.0000000,0.0000000,0.0000000,0.0000200,0.0000000,0.0000000,0.0000040,0.0000000,0.0000000,0.0000000,0.0000200,0.0000000,0.0000000,0.0000040
78.2087300,1.1499500,,-0.9310491,-0.3648873,0.0000690,0.0021695,-0.0027120,-0.0011812,-0.0002467,,,,1.6792129,-4.2830935,-13.8897667,0.0000000,0.0000000,0.0000000,0.0229990,0.0002009,0.0000000,0.0000000,0.0000201,0.0000000,0.0000000,0.0000000,0.0002009,0.0000000,0.0000000,0.0000201,0.0000000,0.0000000,0.0000000,0.0002009,0.0000000,0.0000000,0.0000201,0.0000201,0.0000000,0.0000000,0.0000040,0.0000000,0.0000000,0.0000000,0.0000201,0.0000000,0.0000000,0.0000040,0.0000000,0.0000000,0.0000000,0.0000201,0.0000000,0.0000000,0.0000040
78.2298290,1.0505000,,-0.9310491,-0.3648873,0.0000532,0.0021773,0.0022832,0.0078094,-0.0059827,,,,1.6792129,-4.2830935,-13.8897667,0.0000000,0.0000000,0.0000000,0.0210100,0.0002017,0.0000000,0.0000000,0.0000202,0.0000000,0.0000000,0.0000000,0.0002017,0.0000000,0.0000000,0.0000202,0.0000000,0.0000000,0.0000000,0.0002017,0.0000000,0.0000000,0.0000202,0.0000202,0.0000000,0.0000000,0.0000040,0.0000000,0.0000000,0.0000000,0.0000202,0.0000000,0.0000000,0.0000040,0.0000000,0.0000000,0.0000000,0.0000202,0.0000000,0.0000000,0.0000040
78.2510960,1.0496000,,-0.9310491,-0.3648874,0.0000278,0.0021821,0.0018130,0.0052093,0.0001825,,,,1.6792129,-4.2830935,-13.8897667,0.0000000,0.0000000,0.0000000,0.0209920,0.0002026,0.0000000,0.0000000,0.0000202,0.0000000,0.0000000,0.0000000,0.0002026,0.0000000,0.0000000,0.0000202,0.0000000,0.0000000,0.0000000,0.0002026,0.0000000,0.0000000,0.0000202,0.0000202,0.0000000,0.0000000,0.0000040,0.0000000,0.0000000,0.0000000,0.0000202,0.0000000,0.0000000,0.0000040,0.0000000,0.0000000,0.0000000,0.0000202,0.0000000,0.0000000,0.0000040
78.2707160,0.9999500,,-0.9310491,-0.3648874,0.0000176,0.0021934,0.0045076,-0.0016831,0.0003354,,,,1.6792129,-4.2830935,-13.8897667,0.0000000,0.0000000,0.0000000,0.0199990,0.0002034,0.0000000,0.0000000,0.0000203,0.0000000,0.0000000,0.0000000,0.0002034,0.0000000,0.0000000,0.0000203,0.0000000,0.0000000,0.0000000,0.0002034,0.0000000,0.0000000,0.0000203,0.0000203,0.0000000,0.0000000,0.0000040,0.0000000,0.0000000,0.0000000,0.0000203,0.0000000,0.0000000,0.0000040,0.0000000,0.0000000,0.0000000,0.0000203,0.0000000,0.0000000,0.0000040
78.2867410,,0.9999900,-0.9310491,-0.3648874,0.0000176,0.0021934,,,,0.0000000,0.0000000,0.0000000,1.6792129,-4.2830935,-13.8897667,0.0000000,0.0000000,0.0000000,0.0999990,0.0001993,0.0000000,0.0000000,0.0000199,0.0000000,0.0000000,0.0000000,0.0001993,0.0000000,0.0000000,0.0000199,0.0000000,0.0000000,0.0000000,0.0001993,0.0000000,0.0000000,0.0000199,0.0000199,0.0000000,0.0000000,0.0000040,0.0000000,0.0000000,0.0000000,0.0000199,0.0000000,0.0000000,0.0000040,0.0000000,0.0000000,0.0000000,0.0000199,0.0000000,0.0000000,0.0000040
78.3006400,1.0000000,,-0.9310490,-0.3648874,0.0000320,0.0022136,0.0019715,-0.0041145,-0.0010530,,,,1.6792129,-4.2830935,-13.8897667,0.0000000,0.0000000,0.0000000,0.0200000,0.0002001,0.0000000,0.0000000,0.0000200,0.0000000,0.0000000,0.0000000,0.0002001,0.0000000,0.0000000,0.0000200,0.0000000,0.0000000,0.0000000,0.0002001,0.0000000,0.0000000,0.0000200,0.0000200,0.0000000,0.0000000,0.0000040,0.0000000,0.0000000,0.0000000,0.0000200,0.0000000,0.0000000,0.0000040,0.0000000,0.0000000,0.0000000,0.0000200,0.0000000,0.0000000,0.0000040
78.3137580,1.1499500,,-0.9310490,-0.3648873,0.0000352,0.0022500,0.0014130,-0.0021107,-0.0015031,,,,1.6792129,-4.2830935,-13.8897667,0.0000000,0.0000000,0.0000000,0.0229990,0.0002010,0.0000000,0.0000000,0.0000201,0.0000000,0.0000000,0.0000000,0.0002010,0.0000000,0.0000000,0.0000201,0.0000000,0.0000000,0.0000000,0.0002010,0.0000000,0.0000000,0.0000201,0.0000201,0.0000000,0.0000000,0.0000040,0.0000000,0.0000000,0.0000000,0.0000201,0.0000000,0.0000000,0.0000040,0.0000000,0.0000000,0.0000000,0.0000201,0.0000000,0.0000000,0.0000040
78.3348150,1.0505501,,-0.9310490,-0.3648873,0.0000548,0.0022598,-0.0034668,-0.0072123,-0.0051461,,,,1.6792129,-4.2830935,-13.8897667,0.0000000,0.0000000,0.0000000,0.0210110,0.0002019,0.0000000,0.0000000,0.0000202,0.0000000,0.0000000,0.0000000,0.0002019,0.0000000,0.0000000,0.0000202,0.0000000,0.0000000,0.0000000,0.0002019,0.0000000,0.0000000,0.0000202,0.0000202,0.0000000,0.0000000,0.0000040,0.0000000,0.0000000,0.0000000,0.0000202,0.0000000,0.0000000,0.0000040,0.0000000,0.0000000,0.0000000,0.0000202,0.0000000,0.0000000,0.0000040
78.3560840,1.0495000,,-0.9310490,-0.3648872,0.0000792,0.0022612,0.0004715,-0.0063375,-0.0003758,,,,1.6792129,-4.2830935,-13.8897667,0.0000000,0.0000000,0.0000000,0.0209900,0.0002027,0.0000000,0.0000000,0.0000203,0.0000000,0.0000000,0.0000000,0.0002027,0.0000000,0.0000000,0.0000203,0.0000000,0.0000000,0.0000000,0.0002027,0.0000000,0.0000000,0.0000203,0.0000203,0.0000000,0.0000000,0.0000040,0.0000000,0.0000000,0.0000000,0.0000203,0.0000000,0.0000000,0.0000040,0.0000000,0.0000000,0.0000000,0.0000203,0.0000000,0.0000000,0.0000040
78.3750290,,1.0099900,-0.9310489,-0.3648873,0.0000583,0.0022806,,,,0.0000000,0.0000000,0.0000000,1.6792129,-4.2830935,-13.8897667,0.0000000,0.0000000,0.0000000,0.1009990,0.0001987,0.0000000,0.0000000,0.0000199,0.0000000,0.0000000,0.0000000,0.0001987,0.0000000,0.0000000,0.0000199,0.0000000,0.0000000,0.0000000,0.0001987,0.0000000,0.0000000,0.0000199,0.0000199,0.0000000,0.0000000,0.0000040,0.0000000,0.0000000,0.0000000,0.0000199,0.0000000,0.0000000,0.0000040,0.0000000,0.0000000,0.0000000,0.0000199,0.0000000,0.0000000,0.0000040
78.3887470,1.0001501,,-0.9310489,-0.3648873,0.0000583,0.0022806,0.0050499,-0.0058924,0.0007887,,,,1.6792129,-4.2830935,-13.8897667,0.0000000,0.0000000,0.0000000,0.0200030,0.0001995,0.0000000,0.0000000,0.0000199,0.0000000,0.0000000,0.0000000,0.0001995,0.0000000,0.0000000,0.0000199,0.0000000,0.0000000,0.0000000,0.0001995,0.0000000,0.0000000,0.0000199,0.0000199,0.0000000,0.0000000,0.0000040,0.0000000,0.0000000,0.0000000,0.0000199,0.0000000,0.0000000,0.0000040,0.0000000,0.0000000,0.0000000,0.0000199,0.0000000,0.0000000,0.0000040
78.4020760,1.2998500,,-0.9310489,-0.3648873,0.0000346,0.0022727,-0.0009769,-0.0064481,0.0008826,,,,1.6792129,-4.2830935,-13.8897667,0.0000000,0.0000000,0.0000000,0.0259970,0.0002005,0.0000000,0.0000000,0.0000200,0.0000000,0.0000000,0.0000000,0.0002005,0.0000000,0.0000000,0.0000200,0.0000000,0.0000000,0.0000000,0.0002005,0.0000000,0.0000000,0.0000200,0.0000200,0.0000000,0.0000000,0.0000040,0.0000000,0.0000000,0.0000000,0.0000200,0.0000000,0.0000000,0.0000040,0.0000000,0.0000000,0.0000000,0.0000200,0.0000000,0.0000000,0.0000040
78.4226310,1.0501500,,-0.9310489,-0.3648874,0.0000077,0.0022621,0.0020903,-0.0021102,-0.0051739,,,,1.6792129,-4.2830935,-13.8897667,0.0000000,0.0000000,0.0000000,0.0210030,0.0002014,0.0000000,0.0000000,0.0000201,0.0000000,0.0000000,0.0000000,0.0002014,0.0000000,0.0000000,0.0000201,0.0000000,0.0000000,0.0000000,0.0002014,0.0000000,0.0000000,0.0000201,0.0000201,0.0000000,0.0000000,0.0000040,0.0000000,0.0000000,0.0000000,0.0000201,0.0000000,0.0000000,0.0000040,0.0000000,0.0000000,0.0000000,0.0000201,0.0000000,0.0000000,0.0000040
78.4439530,1.0506001,,-0.9310489,-0.3648874,-0.0000069,0.0022492,0.0016784,-0.0014213,-0.0020987,,,,1.6792129,-4.2830935,-13.8897667,0.0000000,0.0000000,0.0000000,0.0210120,0.0002022,0.0000000,0.0000000,0.0000202,0.0000000,0.0000000,0.0000000,0.0002022,0.0000000,0.0000000,0.0000202,0.0000000,0.0000000,0.0000000,0.0002022,0.0000000,0.0000000,0.0000202,0.0000202,0.0000000,0.0000000,0.0000040,0.0000000,0.0000000,0.0000000,0.0000202,0.0000000,0.0000000,0.0000040,0.0000000,0.0000000,0.0000000,0.0000202,0.0000000,0.0000000,0.0000040
78.4663420,1.0498501,,-0.9310489,-0.3648875,-0.0000219,0.0022586,0.0068206,-0.0027630,-0.0003169,,,,1.6792129,-4.2830935,-13.8897667,0.0000000,0.0000000,0.0000000,0.0209970,0.0002031,0.0000000,0.0000000,0.0000203,0.0000000,0.0000000,0.0000000,0.0002031,0.0000000,0.0000000,0.0000203,0.0000000,0.0000000,0.0000000,0.0002031,0.0000000,0.0000000,0.0000203,0.0000203,0.0000000,0.0000000,0.0000040,0.0000000,0.0000000,0.0000000,0.0000203,0.0000000,0.0000000,0.0000040,0.0000000,0.0000000,0.0000000,0.0000203,0.0000000,0.0000000,0.0000040
78.4810350,,1.0200100,-0.9310489,-0.3648875,-0.0000219,0.0022811,,,,0.0000000,0.0000000,0.0000000,1.6792129,-4.2830935,-13.8897667,0.0000000,0.0000000,0.0000000,0.1020010,0.0001990,0.0000000,0.0000000,0.0000199,0.0000000,0.0000000,0.0000000,0.0001990,0.0000000,0.0000000,0.0000199,0.0000000,0.0000000,0.0000000,0.0001990,0.0000000,0.0000000,0.0000199,0.0000199,0.0000000,0.0000000,0.0000040,0.0000000,0.0000000,0.0000000,0.0000199,0.0000000,0.0000000,0.0000040,0.0000000,0.0000000,0.0000000,0.0000199,0.0000000,0.0000000,0.0000040
78.4949360,0.9997000,,-0.9310489,-0.3648874,-0.0000154,0.0022811,-0.0008545,-0.0102239,-0.0043089,,,,1.6792129,-4.2830935,-13.8897667,0.0000000,0.0000000,0.0000000,0.0199940,0.0001998,0.0000000,0.0000000,0.0000200,0.0000000,0.0000000,0.0000000,0.0001998,0.0000000,0.0000000,0.0000200,0.0000000,0.0000000,0.0000000,0.0001998,0.0000000,0.0000000,0.0000200,0.0000200,0.0000000,0.0000000,0.0000040,0.0000000,0.0000000,0.0000000,0.0000200,0.0000000,0.0000000,0.0000040,0.0000000,0.0000000,0.0000000,0.0000200,0.0000000,0.0000000,0.0000040
78.5078900,1.1497000,,-0.9310488,-0.3648875,-0.0000272,0.0022984,0.0067520,-0.0024798,-0.0048400,,,,1.6792129,-4.2830935,-13.8897667,0.0000000,0.0000000,0.0000000,0.0229940,0.0002007,0.0000000,0.0000000,0.0000201,0.0000000,0.0000000,0.0000000,0.0002007,0.0000000,0.0000000,0.0000201,0.0000000,0.0000000,0.0000000,0.0002007,0.0000000,0.0000000,0.0000201,0.0000201,0.0000000,0.0000000,0.0000040,0.0000000,0.0000000,0.0000000,0.0000201,0.0000000,0.0000000,0.0000040,0.0000000,0.0000000,0.0000000,0.0000201,0.0000000,0.0000000,0.0000040
78.5286970,1.0501500,,-0.9310488,-0.3648875,-0.0000377,0.0022963,-0.0040932,-0.0040018,0.0024628,,,,1.6792129,-4.2830935,-13.8897667,0.0000000,0.0000000,0.0000000,0.0210030,0.0002016,0.0000000,0.0000000,0.0000201,0.0000000,0.0000000,0.0000000,0.0002016,0.0000000,0.0000000,0.0000201,0.0000000,0.0000000,0.0000000,0.0002016,0.0000000,0.0000000,0.0000201,0.0000201,0.0000000,0.0000000,0.0000040,0.0000000,0.0000000,0.0000000,0.0000201,0.0000000,0.0000000,0.0000040,0.0000000,0.0000000,0.0000000,0.0000201,0.0000000,0.0000000,0.0000040
78.5495530,1.0503500,,-0.9310488,-0.3648875,-0.0000505,0.0022832,-0.0029316,-0.0016194,0.0029404,,,,1.6792129,-4.2830935,-13.8897667,0.0000000,0.0000000,0.0000000,0.0210070,0.0002024,0.0000000,0.0000000,0.0000202,0.0000000,0.0000000,0.0000000,0.0002024,0.0000000,0.0000000,0.0000202,0.0000000,0.0000000,0.0000000,0.0002024,0.0000000,0.0000000,0.0000202,0.0000202,0.0000000,0.0000000,0.0000040,0.0000000,0.0000000,0.0000000,0.0000202,0.0000000,0.0000000,0.0000040,0.0000000,0.0000000,0.0000000,0.0000202,0.0000000,0.0000000,0.0000040
78.5707550,1.0496501,,-0.9310489,-0.3648875,-0.0000289,0.0022590,-0.0039911,0.0024938,0.0039116,,,,1.6792129,-4.2830935,-13.8897667,0.0000000,0.0000000,0.0000000,0.0209930,0.0002033,0.0000000,0.0000000,0.0000203,0.0000000,0.0000000,0.0000000,0.0002033,0.0000000,0.0000000,0.0000203,0.0000000,0.0000000,0.0000000,0.0002033,0.0000000,0.0000000,0.0000203,0.0000203,0.0000000,0.0000000,0.0000040,0.0000000,0.0000000,0.0000000,0.0000203,0.0000000,0.0000000,0.0000040,0.0000000,0.0000000,0.0000000,0.0000203,0.0000000,0.0000000,0.0000040
78.5866550,,1.0000700,-0.9310489,-0.3648875,-0.0000289,0.0022590,,,,0.0000000,0.0000000,0.0000000,1.6792129,-4.2830935,-13.8897667,0.0000000,0.0000000,0.0000000,0.1000070,0.0001992,0.0000000,0.0000000,0.0000199,0.0000000,0.0000000,0.0000000,0.0001992,0.0000000,0.0000000,0.0000199,0.0000000,0.0000000,0.0000000,0.0001992,0.0000000,0.0000000,0.0000199,0.0000199,0.0000000,0.0000000,0.0000040,0.0000000,0.0000000,0.0000000,0.0000199,0.0000000,0.0000000,0.0000040,0.0000000,0.0000000,0.0000000,0.0000199,0.0000000,0.0000000,0.0000040
78.6006960,0.9998500,,-0.9310489,-0.3648875,-0.0000169,0.0022569,-0.0096555,-0.0027585,0.0002468,,,,1.6792129,-4.2830935,-13.8897667,0.0000000,0.0000000,0.0000000,0.0199970,0.0002000,0.0000000,0.0000000,0.0000200,0.0000000,0.0000000,0.0000000,0.0002000,0.0000000,0.0000000,0.0000200,0.0000000,0.0000000,0.0000000,0.0002000,0.0000000,0.0000000,0.0000200,0.0000200,0.0000000,0.0000000,0.0000040,0.0000000,0.0000000,0.0000000,0.0000200,0.0000000,0.0000000,0.0000040,0.0000000,0.0000000,0.0000000,0.0000200,0.0000000,0.0000000,0.0000040
78.6135730,1.1500500,,-0.9310489,-0.3648874,0.0000019,0.0022581,-0.0041640,0.0017106,-0.0006090,,,,1.6792129,-4.2830935,-13.8897667,0.0000000,0.0000000,0.0000000,0.0230010,0.0002009,0.0000000,0.0000000,0.0000201,0.0000000,0.0000000,0.0000000,0.0002009,0.0000000,0.0000000,0.0000201,0.0000000,0.0000000,0.0000000,0.0002009,0.0000000,0.0000000,0.0000201,0.0000201,0.0000000,0.0000000,0.0000040,0.0000000,0.0000000,0.0000000,0.0000201,0.0000000,0.0000000,0.0000040,0.0000000,0.0000000,0.0000000,0.0000201,0.0000000,0.0000000,0.0000040
78.6347770,1.0500500,,-0.9310489,-0.3648874,0.0000232,0.0022459,-0.0048057,0.0010003,0.0011603,,,,1.6792129,-4.2830935,-13.8897667,0.0000000,0.0000000,0.0000000,0.0210010,0.0002018,0.0000000,0.0000000,0.0000202,0.0000000,0.0000000,0.0000000,0.0002018,0.0000000,0.0000000,0.0000202,0.0000000,0.0000000,0.0000000,0.0002018,0.0000000,0.0000000,0.0000202,0.0000202,0.0000000,0.0000000,0.0000040,0.0000000,0.0000000,0.0000000,0.0000202,0.0000000,0.0000000,0.0000040,0.0000000,0.0000000,0.0000000,0.0000202,0.0000000,0.0000000,0.0000040
78.6547740,1.0003500,,-0.9310489,-0.3648874,0.0000243,0.0022463,-0.0044170,0.0055355,-0.0047909,,,,1.6792129,-4.2830935,-13.8897667,0.0000000,0.0000000,0.0000000,0.0200070,0.0002026,0.0000000,0.0000000,0.0000202,0.0000000,0.0000000,0.0000000,0.0002026,0.0000000,0.0000000,0.0000202,0.0000000,0.0000000,0.0000000,0.0002026,0.0000000,0.0000000,0.0000202,0.0000202,0.0000000,0.0000000,0.0000040,0.0000000,0.0000000,0.0000000,0.0000202,0.0000000,0.0000000,0.0000040,0.0000000,0.0000000,0.0000000,0.0000202,0.0000000,0.0000000,0.0000040
78.6780140,,1.0099300,-0.9310489,-0.3648874,0.0000268,0.0022836,,,,0.0000000,0.0000000,0.0000000,1.6792129,-4.2830935,-13.8897667,0.0000000,0.0000000,0.0000000,0.1009930,0.0001986,0.0000000,0.0000000,0.0000198,0.0000000,0.0000000,0.0000000,0.0001986,0.0000000,0.0000000,0.0000198,0.0000000,0.0000000,0.0000000,0.0001986,0.0000000,0.0000000,0.0000198,0.0000198,0.0000000,0.0000000,0.0000040,0.0000000,0.0000000,0.0000000,0.0000198,0.0000000,0.0000000,0.0000040,0.0000000,0.0000000,0.0000000,0.0000198,0.0000000,0.0000000,0.0000040
78.6916870,1.0997001,,-0.9310489,-0.3648874,0.0000268,0.0022836,-0.0052221,-0.0009172,-0.0041044,,,,1.6792129,-4.2830935,-13.8897667,0.0000000,0.0000000,0.0000000,0.0219940,0.0001994,0.0000000,0.0000000,0.0000199,0.0000000,0.0000000,0.0000000,0.0001994,0.0000000,0.0000000,0.0000199,0.0000000,0.0000000,0.0000000,0.0001994,0.0000000,0.0000000,0.0000199,0.0000199,0.0000000,0.0000000,0.0000040,0.0000000,0.0000000,0.0000000,0.0000199,0.0000000,0.0000000,0.0000040,0.0000000,0.0000000,0.0000000,0.0000199,0.0000000,0.0000000,0.0000040
78.7049050,1.3998001,,-0.9310488,-0.3648874,0.0000109,0.0023259,-0.0017642,-0.0036248,-0.0064468,,,,1.6792129,-4.2830935,-13.8897667,0.0000000,0.0000000,0.0000000,0.0279960,0.0002006,0.0000000,0.0000000,0.0000200,0.0000000,0.0000000,0.0000000,0.0002006,0.0000000,0.0000000,0.0000200,0.0000000,0.0000000,0.0000000,0.0002006,0.0000000,0.0000000,0.0000200,0.0000200,0.0000000,0.0000000,0.0000040,0.0000000,0.0000000,0.0000000,0.0000200,0.0000000,0.0000000,0.0000040,0.0000000,0.0000000,0.0000000,0.0000200,0.0000000,0.0000000,0.0000040
78.7251560,1.0005500,,-0.9310486,-0.3648874,-0.0000022,0.0023614,0.0016509,-0.0069088,-0.0081062,,,,1.6792129,-4.2830935,-13.8897667,0.0000000,0.0000000,0.0000000,0.0200110,0.0002014,0.0000000,0.0000000,0.0000201,0.0000000,0.0000000,0.0000000,0.0002014,0.0000000,0.0000000,0.0000201,0.0000000,0.0000000,0.0000000,0.0002014,0.0000000,0.0000000,0.0000201,0.0000201,0.0000000,0.0000000,0.0000040,0.0000000,0.0000000,0.0000000,0.0000201,0.0000000,0.0000000,0.0000040,0.0000000,0.0000000,0.0000000,0.0000201,0.0000000,0.0000000,0.0000040
78.7448070,0.9999000,,-0.9310486,-0.3648874,-0.0000165,0.0023687,0.0011535,-0.0012495,-0.0064945,,,,1.6792129,-4.2830935,-13.8897667,0.0000000,0.0000000,0.0000000,0.0199980,0.0002022,0.0000000,0.0000000,0.0000202,0.0000000,0.0000000,0.0000000,0.0002022,0.0000000,0.0000000,0.0000202,0.0000000,0.0000000,0.0000000,0.0002022,0.0000000,0.0000000,0.0000202,0.0000202,0.0000000,0.0000000,0.0000040,0.0000000,0.0000000,0.0000000,0.0000202,0.0000000,0.0000000,0.0000040,0.0000000,0.0000000,0.0000000,0.0000202,0.0000000,0.0000000,0.0000040
78.7649910,1.0000000,,-0.9310486,-0.3648874,-0.0000244,0.0023812,-0.0017884,0.0006188,-0.0069094,,,,1.6792129,-4.2830935,-13.8897667,0.0000000,0.0000000,0.0000000,0.0200000,0.0002030,0.0000000,0.0000000,0.0000203,0.0000000,0.0000000,0.0000000,0.0002030,0.0000000,0.0000000,0.0000203,0.0000000,0.0000000,0.0000000,0.0002030,0.0000000,0.0000000,0.0000203,0.0000203,0.0000000,0.0000000,0.0000040,0.0000000,0.0000000,0.0000000,0.0000203,0.0000000,0.0000000,0.0000040,0.0000000,0.0000000,0.0000000,0.0000203,0.0000000,0.0000000,0.0000040
78.7808200,,1.0002099,-0.9310486,-0.3648874,-0.0000244,0.0023812,,,,0.0000000,0.0000000,0.0000000,1.6792129,-4.2830935,-13.8897667,0.0000000,0.0000000,0.0000000,0.1000210,0.0001989,0.0000000,0.0000000,0.0000199,0.0000000,0.0000000,0.0000000,0.0001989,0.0000000,0.0000000,0.0000199,0.0000000,0.0000000,0.0000000,0.0001989,0.0000000,0.0000000,0.0000199,0.0000199,0.0000000,0.0000000,0.0000040,0.0000000,0.0000000,0.0000000,0.0000199,0.0000000,0.0000000,0.0000040,0.0000000,0.0000000,0.0000000,0.0000199,0.0000000,0.0000000,0.0000040
78.7947730,0.9997500,,-0.9310486,-0.3648875,-0.0000509,0.0023916,0.0018219,0.0052075,0.0002074,,,,1.6792129,-4.2830935,-13.8897667,0.0000000,0.0000000,0.0000000,0.0199950,0.0001997,0.0000000,0.0000000,0.0000200,0.0000000,0.0000000,0.0000000,0.0001997,0.0000000,0.0000000,0.0000200,0.0000000,0.0000000,0.0000000,0.0001997,0.0000000,0.0000000,0.0000200,0.0000200,0.0000000,0.0000000,0.0000040,0.0000000,0.0000000,0.0000000,0.0000200,0.0000000,0.0000000,0.0000040,0.0000000,0.0000000,0.0000000,0.0000200,0.0000000,0.0000000,0.0000040
78.8077170,1.1497501,,-0.9310486,-0.3648875,-0.0000449,0.0023814,-0.0021866,0.0018713,-0.0025818,,,,1.6792129,-4.2830935,-13.8897667,0.0000000,0.0000000,0.0000000,0.0229950,0.0002006,0.0000000,0.0000000,0.0000200,0.0000000,0.0000000,0.0000000,0.0002006,0.0000000,0.0000000,0.0000200,0.0000000,0.0000000,0.0000000,0.0002006,0.0000000,0.0000000,0.0000200,0.0000200,0.0000000,0.0000000,0.0000040,0.0000000,0.0000000,0.0000000,0.0000200,0.0000000,0.0000000,0.0000040,0.0000000,0.0000000,0.0000000,0.0000200,0.0000000,0.0000000,0.0000040
78.8289720,1.0503000,,-0.9310486,-0.3648875,-0.0000523,0.0023728,0.0004326,0.0023852,0.0006622,,,,1.6792129,-4.2830935,-13.8897667,0.0000000,0.0000000,0.0000000,0.0210060,0.0002015,0.0000000,0.0000000,0.0000201,0.0000000,0.0000000,0.0000000,0.0002015,0.0000000,0.0000000,0.0000201,0.0000000,0.0000000,0.0000000,0.0002015,0.0000000,0.0000000,0.0000201,0.0000201,0.0000000,0.0000000,0.0000040,0.0000000,0.0000000,0.0000000,0.0000201,0.0000000,0.0000000,0.0000040,0.0000000,0.0000000,0.0000000,0.0000201,0.0000000,0.0000000,0.0000040
78.8488020,1.0000501,,-0.9310486,-0.3648875,-0.0000569,0.0023673,0.0014980,0.0055719,-0.0011337,,,,1.6792129,-4.2830935,-13.8897667,0.0000000,0.0000000,0.0000000,0.0200010,0.0002023,0.0000000,0.0000000,0.0000202,0.0000000,0.0000000,0.0000000,0.0002023,0.0000000,0.0000000,0.0000202,0.0000000,0.0000000,0.0000000,0.0002023,0.0000000,0.0000000,0.0000202,0.0000202,0.0000000,0.0000000,0.0000040,0.0000000,0.0000000,0.0000000,0.0000202,0.0000000,0.0000000,0.0000040,0.0000000,0.0000000,0.0000000,0.0000202,0.0000000,0.0000000,0.0000040
78.8713620,1.0503000,,-0.9310486,-0.3648875,-0.0000457,0.0023698,-0.0018526,0.0008328,-0.0003227,,,,1.6792129,-4.2830935,-13.8897667,0.0000000,0.0000000,0.0000000,0.0210060,0.0002031,0.0000000,0.0000000,0.0000203,0.0000000,0.0000000,0.0000000,0.0002031,0.0000000,0.0000000,0.0000203,0.0000000,0.0000000,0.0000000,0.0002031,0.0000000,0.0000000,0.0000203,0.0000203,0.0000000,0.0000000,0.0000040,0.0000000,0.0000000,0.0000000,0.0000203,0.0000000,0.0000000,0.0000040,0.0000000,0.0000000,0.0000000,0.0000203,0.0000000,0.0000000,0.0000040
78.8860420,,1.0198599,-0.9310486,-0.3648875,-0.0000457,0.0023594,,,,0.0000000,0.0000000,0.0000000,1.6792129,-4.2830935,-13.8897667,0.0000000,0.0000000,0.0000000,0.1019860,0.0001991,0.0000000,0.0000000,0.0000199,0.0000000,0.0000000,0.0000000,0.0001991,0.0000000,0.0000000,0.0000199,0.0000000,0.0000000,0.0000000,0.0001991,0.0000000,0.0000000,0.0000199,0.0000199,0.0000000,0.0000000,0.0000040,0.0000000,0.0000000,0.0000000,0.0000199,0.0000000,0.0000000,0.0000040,0.0000000,0.0000000,0.0000000,0.0000199,0.0000000,0.0000000,0.0000040
78.8999310,0.9998500,,-0.9310486,-0.3648874,-0.0000290,0.0023594,-0.0003236,-0.0003236,0.0032566,,,,1.6792129,-4.2830935,-13.8897667,0.0000000,0.0000000,0.0000000,0.0199970,0.0001999,0.0000000,0.0000000,0.0000200,0.0000000,0.0000000,0.0000000,0.0001999,0.0000000,0.0000000,0.0000200,0.0000000,0.0000000,0.0000000,0.0001999,0.0000000,0.0000000,0.0000200,0.0000200,0.0000000,0.0000000,0.0000040,0.0000000,0.0000000,0.0000000,0.0000200,0.0000000,0.0000000,0.0000040,0.0000000,0.0000000,0.0000000,0.0000200,0.0000000,0.0000000,0.0000040
78.9127080,1.1496000,,-0.9310486,-0.3648875,-0.0000444,0.0023737,0.0033096,0.0000900,0.0013842,,,,1.6792129,-4.2830935,-13.8897667,0.0000000,0.0000000,0.0000000,0.0229920,0.0002008,0.0000000,0.0000000,0.0000201,0.0000000,0.0000000,0.0000000,0.0002008,0.0000000,0.0000000,0.0000201,0.0000000,0.0000000,0.0000000,0.0002008,0.0000000,0.0000000,0.0000201,0.0000201,0.0000000,0.0000000,0.0000040,0.0000000,0.0000000,0.0000000,0.0000201,0.0000000,0.0000000,0.0000040,0.0000000,0.0000000,0.0000000,0.0000201,0.0000000,0.0000000,0.0000040
78.9340060,1.0502001,,-0.9310486,-0.3648875,-0.0000475,0.0023670,-0.0002297,0.0032035,0.0006921,,,,1.6792129,-4.2830935,-13.8897667,0.0000000,0.0000000,0.0000000,0.0210040,0.0002017,0.0000000,0.0000000,0.0000201,0.0000000,0.0000000,0.0000000,0.0002017,0.0000000,0.0000000,0.0000201,0.0000000,0.0000000,0.0000000,0.0002017,0.0000000,0.0000000,0.0000201,0.0000201,0.0000000,0.0000000,0.0000040,0.0000000,0.0000000,0.0000000,0.0000201,0.0000000,0.0000000,0.0000040,0.0000000,0.0000000,0.0000000,0.0000201,0.0000000,0.0000000,0.0000040
78.9538690,1.0000000,,-0.9310486,-0.3648875,-0.0000462,0.0023685,-0.0019917,0.0016018,0.0022992,,,,1.6792129,-4.2830935,-13.8897667,0.0000000,0.0000000,0.0000000,0.0200000,0.0002025,0.0000000,0.0000000,0.0000202,0.0000000,0.0000000,0.0000000,0.0002025,0.0000000,0.0000000,0.0000202,0.0000000,0.0000000,0.0000000,0.0002025,0.0000000,0.0000000,0.0000202,0.0000202,0.0000000,0.0000000,0.0000040,0.0000000,0.0000000,0.0000000,0.0000202,0.0000000,0.0000000,0.0000040,0.0000000,0.0000000,0.0000000,0.0000202,0.0000000,0.0000000,0.0000040
78.9751570,1.0502501,,-0.9310486,-0.3648874,-0.0000385,0.0023881,-0.0004313,0.0008390,0.0018820,,,,1.6792129,-4.2830935,-13.8897667,0.0000000,0.0000000,0.0000000,0.0210050,0.0002033,0.0000000,0.0000000,0.0000203,0.0000000,0.0000000,0.0000000,0.0002033,0.0000000,0.0000000,0.0000203,0.0000000,0.0000000,0.0000000,0.0002033,0.0000000,0.0000000,0.0000203,0.0000203,0.0000000,0.0000000,0.0000040,0.0000000,0.0000000,0.0000000,0.0000203,0.0000000,0.0000000,0.0000040,0.0000000,0.0000000,0.0000000,0.0000203,0.0000000,0.0000000,0.0000040
78.9910330,,0.9999900,-0.9310486,-0.3648874,-0.0000385,0.0023986,,,,0.0000000,0.0000000,0.0000000,1.6792129,-4.2830935,-13.8897667,0.0000000,0.0000000,0.0000000,0.0999990,0.0001993,0.0000000,0.0000000,0.0000199,0.0000000,0.0000000,0.0000000,0.0001993,0.0000000,0.0000000,0.0000199,0.0000000,0.0000000,0.0000000,0.0001993,0.0000000,0.0000000,0.0000199,0.0000199,0.0000000,0.0000000,0.0000040,0.0000000,0.0000000,0.0000000,0.0000199,0.0000000,0.0000000,0.0000040,0.0000000,0.0000000,0.0000000,0.0000199,0.0000000,0.0000000,0.0000040
79.0048100,0.9999000,,-0.9310486,-0.3648874,-0.0000245,0.0023986,-0.0047627,0.0004653,0.0070445,,,,1.6792129,-4.2830935,-13.8897667,0.0000000,0.0000000,0.0000000,0.0199980,0.0002001,0.0000000,0.0000000,0.0000200,0.0000000,0.0000000,0.0000000,0.0002001,0.0000000,0.0000000,0.0000200,0.0000000,0.0000000,0.0000000,0.0002001,0.0000000,0.0000000,0.0000200,0.0000200,0.0000000,0.0000000,0.0000040,0.0000000,0.0000000,0.0000000,0.0000200,0.0000000,0.0000000,0.0000040,0.0000000,0.0000000,0.0000000,0.0000200,0.0000000,0.0000000,0.0000040
79.0177150,1.1496000,,-0.9310485,-0.3648874,-0.0000248,0.0024152,-0.0030451,-0.0019036,0.0052312,,,,1.6792129,-4.2830935,-13.8897667,0.0000000,0.0000000,0.0000000,0.0229920,0.0002010,0.0000000,0.0000000,0.0000201,0.0000000,0.0000000,0.0000000,0.0002010,0.0000000,0.0000000,0.0000201,0.0000000,0.0000000,0.0000000,0.0002010,0.0000000,0.0000000,0.0000201,0.0000201,0.0000000,0.0000000,0.0000040,0.0000000,0.0000000,0.0000000,0.0000201,0.0000000,0.0000000,0.0000040,0.0000000,0.0000000,0.0000000,0.0000201,0.0000000,0.0000000,0.0000040
79.0389610,1.0502001,,-0.9310484,-0.3648874,-0.0000306,0.0024509,0.0031543,-0.0074368,0.0001742,,,,1.6792129,-4.2830935,-13.8897667,0.0000000,0.0000000,0.0000000,0.0210040,0.0002018,0.0000000,0.0000000,0.0000202,0.0000000,0.0000000,0.0000000,0.0002018,0.0000000,0.0000000,0.0000202,0.0000000,0.0000000,0.0000000,0.0002018,0.0000000,0.0000000,0.0000202,0.0000202,0.0000000,0.0000000,0.0000040,0.0000000,0.0000000,0.0000000,0.0000202,0.0000000,0.0000000,0.0000040,0.0000000,0.0000000,0.0000000,0.0000202,0.0000000,0.0000000,0.0000040
79.0603050,1.0001501,,-0.9310484,-0.3648874,-0.0000414,0.0024618,-0.0040076,-0.0043593,0.0000871,,,,1.6792129,-4.2830935,-13.8897667,0.0000000,0.0000000,0.0000000,0.0200030,0.0002026,0.0000000,0.0000000,0.0000202,0.0000000,0.0000000,0.0000000,0.0002026,0.0000000,0.0000000,0.0000202,0.0000000,0.0000000,0.0000000,0.0002026,0.0000000,0.0000000,0.0000202,0.0000202,0.0000000,0.0000000,0.0000040,0.0000000,0.0000000,0.0000000,0.0000202,0.0000000,0.0000000,0.0000040,0.0000000,0.0000000,0.0000000,0.0000202,0.0000000,0.0000000,0.0000040
79.0799860,,0.9999400,-0.9310484,-0.3648875,-0.0000824,0.0024620,,,,0.0000000,0.0000000,0.0000000,1.6792129,-4.2830935,-13.8897667,0.0000000,0.0000000,0.0000000,0.0999940,0.0001986,0.0000000,0.0000000,0.0000198,0.0000000,0.0000000,0.0000000,0.0001986,0.0000000,0.0000000,0.0000198,0.0000000,0.0000000,0.0000000,0.0001986,0.0000000,0.0000000,0.0000198,0.0000198,0.0000000,0.0000000,0.0000040,0.0000000,0.0000000,0.0000000,0.0000198,0.0000000,0.0000000,0.0000040,0.0000000,0.0000000,0.0000000,0.0000198,0.0000000,0.0000000,0.0000040
79.0935820,1.0003500,,-0.9310484,-0.3648875,-0.0000824,0.0024620,0.0023602,0.0020242,-0.0016654,,,,1.6792129,-4.2830935,-13.8897667,0.0000000,0.0000000,0.0000000,0.0200070,0.0001994,0.0000000,0.0000000,0.0000199,0.0000000,0.0000000,0.0000000,0.0001994,0.0000000,0.0000000,0.0000199,0.0000000,0.0000000,0.0000000,0.0001994,0.0000000,0.0000000,0.0000199,0.0000199,0.0000000,0.0000000,0.0000040,0.0000000,0.0000000,0.0000000,0.0000199,0.0000000,0.0000000,0.0000040,0.0000000,0.0000000,0.0000000,0.0000199,0.0000000,0.0000000,0.0000040
79.1069150,1.3993500,,-0.9310485,-0.3648876,-0.0000943,0.0024229,-0.0036874,0.0110066,-0.0018093,,,,1.6792129,-4.2830935,-13.8897667,0.0000000,0.0000000,0.0000000,0.0279870,0.0002005,0.0000000,0.0000000,0.0000200,0.0000000,0.0000000,0.0000000,0.0002005,0.0000000,0.0000000,0.0000200,0.0000000,0.0000000,0.0000000,0.0002005,0.0000000,0.0000000,0.0000200,0.0000200,0.0000000,0.0000000,0.0000040,0.0000000,0.0000000,0.0000000,0.0000200,0.0000000,0.0000000,0.0000040,0.0000000,0.0000000,0.0000000,0.0000200,0.0000000,0.0000000,0.0000040
79.1279410,1.0504500,,-0.9310485,-0.3648876,-0.0000999,0.0023995,0.0001247,0.0008417,0.0025133,,,,1.6792129,-4.2830935,-13.8897667,0.0000000,0.0000000,0.0000000,0.0210090,0.0002014,0.0000000,0.0000000,0.0000201,0.0000000,0.0000000,0.0000000,0.0002014,0.0000000,0.0000000,0.0000201,0.0000000,0.0000000,0.0000000,0.0002014,0.0000000,0.0000000,0.0000201,0.0000201,0.0000000,0.0000000,0.0000040,0.0000000,0.0000000,0.0000000,0.0000201,0.0000000,0.0000000,0.0000040,0.0000000,0.0000000,0.0000000,0.0000201,0.0000000,0.0000000,0.0000040
79.1478340,0.9996000,,-0.9310485,-0.3648876,-0.0000933,0.0023762,-0.0047823,-0.0008304,0.0000360,,,,1.6792129,-4.2830935,-13.8897667,0.0000000,0.0000000,0.0000000,0.0199920,0.0002022,0.0000000,0.0000000,0.0000202,0.0000000,0.0000000,0.0000000,0.0002022,0.0000000,0.0000000,0.0000202,0.0000000,0.0000000,0.0000000,0.0002022,0.0000000,0.0000000,0.0000202,0.0000202,0.0000000,0.0000000,0.0000040,0.0000000,0.0000000,0.0000000,0.0000202,0.0000000,0.0000000,0.0000040,0.0000000,0.0000000,0.0000000,0.0000202,0.0000000,0.0000000,0.0000040
79.1678530,1.0003500,,-0.9310485,-0.3648877,-0.0001049,0.0023662,-0.0043290,0.0032012,-0.0019351,,,,1.6792129,-4.2830935,-13.8897667,0.0000000,0.0000000,0.0000000,0.0200070,0.0002030,0.0000000,0.0000000,0.0000203,0.0000000,0.0000000,0.0000000,0.0002030,0.0000000,0.0000000,0.0000203,0.0000000,0.0000000,0.0000000,0.0002030,0.0000000,0.0000000,0.0000203,0.0000203,0.0000000,0.0000000,0.0000040,0.0000000,0.0000000,0.0000000,0.0000203,0.0000000,0.0000000,0.0000040,0.0000000,0.0000000,0.0000000,0.0000203,0.0000000,0.0000000,0.0000040
79.1840810,,1.0000100,-0.9310485,-0.3648877,-0.0001049,0.0023662,,,,0.0000000,0.0000000,0.0000000,1.6792129,-4.2830935,-13.8897667,0.0000000,0.0000000,0.0000000,0.1000010,0.0001989,0.0000000,0.0000000,0.0000199,0.0000000,0.0000000,0.0000000,0.0001989,0.0000000,0.0000000,0.0000199,0.0000000,0.0000000,0.0000000,0.0001989,0.0000000,0.0000000,0.0000199,0.0000199,0.0000000,0.0000000,0.0000040,0.0000000,0.0000000,0.0000000,0.0000199,0.0000000,0.0000000,0.0000040,0.0000000,0.0000000,0.0000000,0.0000199,0.0000000,0.0000000,0.0000040
79.1987730,0.9996500,,-0.9310485,-0.3648876,-0.0000989,0.0023861,-0.0053231,0.0057662,0.0031828,,,,1.6792129,-4.2830935,-13.8897667,0.0000000,0.0000000,0.0000000,0.0199930,0.0001997,0.0000000,0.0000000,0.0000200,0.0000000,0.0000000,0.0000000,0.0001997,0.0000000,0.0000000,0.0000200,0.0000000,0.0000000,0.0000000,0.0001997,0.0000000,0.0000000,0.0000200,0.0000200,0.0000000,0.0000000,0.0000040,0.0000000,0.0000000,0.0000000,0.0000200,0.0000000,0.0000000,0.0000040,0.0000000,0.0000000,0.0000000,0.0000200,0.0000000,0.0000000,0.0000040
79.2118240,1.1998500,,-0.9310485,-0.3648876,-0.0001016,0.0024071,-0.0021733,0.0065757,0.0003707,,,,1.6792129,-4.2830935,-13.8897667,0.0000000,0.0000000,0.0000000,0.0239970,0.0002007,0.0000000,0.0000000,0.0000200,0.0000000,0.0000000,0.0000000,0.0002007,0.0000000,0.0000000,0.0000200,0.0000000,0.0000000,0.0000000,0.0002007,0.0000000,0.0000000,0.0000200,0.0000200,0.0000000,0.0000000,0.0000040,0.0000000,0.0000000,0.0000000,0.0000200,0.0000000,0.0000000,0.0000040,0.0000000,0.0000000,0.0000000,0.0000200,0.0000000,0.0000000,0.0000040
79.2319690,1.0001501,,-0.9310485,-0.3648876,-0.0000966,0.0024030,-0.0059466,-0.0001225,0.0055564,,,,1.6792129,-4.2830935,-13.8897667,0.0000000,0.0000000,0.0000000,0.0200030,0.0002015,0.0000000,0.0000000,0.0000201,0.0000000,0.0000000,0.0000000,0.0002015,0.0000000,0.0000000,0.0000201,0.0000000,0.0000000,0.0000000,0.0002015,0.0000000,0.0000000,0.0000201,0.0000201,0.0000000,0.0000000,0.0000040,0.0000000,0.0000000,0.0000000,0.0000201,0.0000000,0.0000000,0.0000040,0.0000000,0.0000000,0.0000000,0.0000201,0.0000000,0.0000000,0.0000040
79.2518870,1.0004500,,-0.9310485,-0.3648876,-0.0000867,0.0024154,-0.0005090,-0.0034411,0.0047313,,,,1.6792129,-4.2830935,-13.8897667,0.0000000,0.0000000,0.0000000,0.0200090,0.0002023,0.0000000,0.0000000,0.0000202,0.0000000,0.0000000,0.0000000,0.0002023,0.0000000,0.0000000,0.0000202,0.0000000,0.0000000,0.0000000,0.0002023,0.0000000,0.0000000,0.0000202,0.0000202,0.0000000,0.0000000,0.0000040,0.0000000,0.0000000,0.0000000,0.0000202,0.0000000,0.0000000,0.0000040,0.0000000,0.0000000,0.0000000,0.0000202,0.0000000,0.0000000,0.0000040
79.2719300,0.9996000,,-0.9310485,-0.3648875,-0.0000698,0.0023998,-0.0023907,0.0039023,-0.0012964,,,,1.6792129,-4.2830935,-13.8897667,0.0000000,0.0000000,0.0000000,0.0199920,0.0002031,0.0000000,0.0000000,0.0000203,0.0000000,0.0000000,0.0000000,0.0002031,0.0000000,0.0000000,0.0000203,0.0000000,0.0000000,0.0000000,0.0002031,0.0000000,0.0000000,0.0000203,0.0000203,0.0000000,0.0000000,0.0000040,0.0000000,0.0000000,0.0000000,0.0000203,0.0000000,0.0000000,0.0000040,0.0000000,0.0000000,0.0000000,0.0000203,0.0000000,0.0000000,0.0000040
79.2881600,,1.0200499,-0.9310485,-0.3648875,-0.0000698,0.0023663,,,,0.0000000,0.0000000,0.0000000,1.6792129,-4.2830935,-13.8897667,0.0000000,0.0000000,0.0000000,0.1020050,0.0001991,0.0000000,0.0000000,0.0000199,0.0000000,0.0000000,0.0000000,0.0001991,0.0000000,0.0000000,0.0000199,0.0000000,0.0000000,0.0000000,0.0001991,0.0000000,0.0000000,0.0000199,0.0000199,0.0000000,0.0000000,0.0000040,0.0000000,0.0000000,0.0000000,0.0000199,0.0000000,0.0000000,0.0000040,0.0000000,0.0000000,0.0000000,0.0000199,0.0000000,0.0000000,0.0000040
79.3026780,1.0001501,,-0.9310486,-0.3648875,-0.0000484,0.0023663,-0.0040182,-0.0007649,-0.0067517,,,,1.6792129,-4.2830935,-13.8897667,0.0000000,0.0000000,0.0000000,0.0200030,0.0001998,0.0000000,0.0000000,0.0000200,0.0000000,0.0000000,0.0000000,0.0001998,0.0000000,0.0000000,0.0000200,0.0000000,0.0000000,0.0000000,0.0001998,0.0000000,0.0000000,0.0000200,0.0000200,0.0000000,0.0000000,0.0000040,0.0000000,0.0000000,0.0000000,0.0000200,0.0000000,0.0000000,0.0000040,0.0000000,0.0000000,0.0000000,0.0000200,0.0000000,0.0000000,0.0000040
79.3159130,1.1997001,,-0.9310486,-0.3648875,-0.0000354,0.0023513,0.0042012,-0.0028467,-0.0041083,,,,1.6792129,-4.2830935,-13.8897667,0.0000000,0.0000000,0.0000000,0.0239940,0.0002008,0.0000000,0.0000000,0.0000201,0.0000000,0.0000000,0.0000000,0.0002008,0.0000000,0.0000000,0.0000201,0.0000000,0.0000000,0.0000000,0.0002008,0.0000000,0.0000000,0.0000201,0.0000201,0.0000000,0.0000000,0.0000040,0.0000000,0.0000000,0.0000000,0.0000201,0.0000000,0.0000000,0.0000040,0.0000000,0.0000000,0.0000000,0.0000201,0.0000000,0.0000000,0.0000040
79.3361430,1.0001000,,-0.9310486,-0.3648875,-0.0000322,0.0023632,0.0048701,-0.0021482,-0.0030307,,,,1.6792129,-4.2830935,-13.8897667,0.0000000,0.0000000,0.0000000,0.0200020,0.0002016,0.0000000,0.0000000,0.0000201,0.0000000,0.0000000,0.0000000,0.0002016,0.0000000,0.0000000,0.0000201,0.0000000,0.0000000,0.0000000,0.0002016,0.0000000,0.0000000,0.0000201,0.0000201,0.0000000,0.0000000,0.0000040,0.0000000,0.0000000,0.0000000,0.0000201,0.0000000,0.0000000,0.0000040,0.0000000,0.0000000,0.0000000,0.0000201,0.0000000,0.0000000,0.0000040
79.3559060,1.0003500,,-0.9310486,-0.3648875,-0.0000309,0.0023739,0.0049604,-0.0061858,-0.0037126,,,,1.6792129,-4.2830935,-13.8897667,0.0000000,0.0000000,0.0000000,0.0200070,0.0002024,0.0000000,0.0000000,0.0000202,0.0000000,0.0000000,0.0000000,0.0002024,0.0000000,0.0000000,0.0000202,0.0000000,0.0000000,0.0000000,0.0002024,0.0000000,0.0000000,0.0000202,0.0000202,0.0000000,0.0000000,0.0000040,0.0000000,0.0000000,0.0000000,0.0000202,0.0000000,0.0000000,0.0000040,0.0000000,0.0000000,0.0000000,0.0000202,0.0000000,0.0000000,0.0000040
79.3767620,1.0497000,,-0.9310486,-0.3648875,-0.0000160,0.0023611,0.0057761,0.0010499,0.0005851,,,,1.6792129,-4.2830935,-13.8897667,0.0000000,0.0000000,0.0000000,0.0209940,0.0002033,0.0000000,0.0000000,0.0000203,0.0000000,0.0000000,0.0000000,0.0002033,0.0000000,0.0000000,0.0000203,0.0000000,0.0000000,0.0000000,0.0002033,0.0000000,0.0000000,0.0000203,0.0000203,0.0000000,0.0000000,0.0000040,0.0000000,0.0000000,0.0000000,0.0000203,0.0000000,0.0000000,0.0000040,0.0000000,0.0000000,0.0000000,0.0000203,0.0000000,0.0000000,0.0000040
79.3930160,,1.0199900,-0.9310486,-0.3648875,-0.0000160,0.0023611,,,,0.0000000,0.0000000,0.0000000,1.6792129,-4.2830935,-13.8897667,0.0000000,0.0000000,0.0000000,0.1019990,0.0001992,0.0000000,0.0000000,0.0000199,0.0000000,0.0000000,0.0000000,0.0001992,0.0000000,0.0000000,0.0000199,0.0000000,0.0000000,0.0000000,0.0001992,0.0000000,0.0000000,0.0000199,0.0000199,0.0000000,0.0000000,0.0000040,0.0000000,0.0000000,0.0000000,0.0000199,0.0000000,0.0000000,0.0000040,0.0000000,0.0000000,0.0000000,0.0000199,0.0000000,0.0000000,0.0000040
79.4067300,1.1004000,,-0.9310486,-0.3648875,-0.0000358,0.0023687,0.0036815,-0.0065551,0.0007808,,,,1.6792129,-4.2830935,-13.8897667,0.0000000,0.0000000,0.0000000,0.0220080,0.0002001,0.0000000,0.0000000,0.0000200,0.0000000,0.0000000,0.0000000,0.0002001,0.0000000,0.0000000,0.0000200,0.0000000,0.0000000,0.0000000,0.0002001,0.0000000,0.0000000,0.0000200,0.0000200,0.0000000,0.0000000,0.0000040,0.0000000,0.0000000,0.0000000,0.0000200,0.0000000,0.0000000,0.0000040,0.0000000,0.0000000,0.0000000,0.0000200,0.0000000,0.0000000,0.0000040
79.4200860,1.0494500,,-0.9310485,-0.3648875,-0.0000515,0.0023992,0.0077306,-0.0044525,-0.0000979,,,,1.6792129,-4.2830935,-13.8897667,0.0000000,0.0000000,0.0000000,0.0209890,0.0002009,0.0000000,0.0000000,0.0000201,0.0000000,0.0000000,0.0000000,0.0002009,0.0000000,0.0000000,0.0000201,0.0000000,0.0000000,0.0000000,0.0002009,0.0000000,0.0000000,0.0000201,0.0000201,0.0000000,0.0000000,0.0000040,0.0000000,0.0000000,0.0000000,0.0000201,0.0000000,0.0000000,0.0000040,0.0000000,0.0000000,0.0000000,0.0000201,0.0000000,0.0000000,0.0000040
79.4399020,1.0002000,,-0.9310485,-0.3648875,-0.0000715,0.0024216,0.0082599,0.0007492,-0.0054200,,,,1.6792129,-4.2830935,-13.8897667,0.0000000,0.0000000,0.0000000,0.0200040,0.0002017,0.0000000,0.0000000,0.0000202,0.0000000,0.0000000,0.0000000,0.0002017,0.0000000,0.0000000,0.0000202,0.0000000,0.0000000,0.0000000,0.0002017,0.0000000,0.0000000,0.0000202,0.0000202,0.0000000,0.0000000,0.0000040,0.0000000,0.0000000,0.0000000,0.0000202,0.0000000,0.0000000,0.0000040,0.0000000,0.0000000,0.0000000,0.0000202,0.0000000,0.0000000,0.0000040
79.4599640,0.9999500,,-0.9310484,-0.3648875,-0.0000724,0.0024478,0.0026727,-0.0007622,0.0046142,,,,1.6792129,-4.2830935,-13.8897667,0.0000000,0.0000000,0.0000000,0.0199990,0.0002025,0.0000000,0.0000000,0.0000202,0.0000000,0.0000000,0.0000000,0.0002025,0.0000000,0.0000000,0.0000202,0.0000000,0.0000000,0.0000000,0.0002025,0.0000000,0.0000000,0.0000202,0.0000202,0.0000000,0.0000000,0.0000040,0.0000000,0.0000000,0.0000000,0.0000202,0.0000000,0.0000000,0.0000040,0.0000000,0.0000000,0.0000000,0.0000202,0.0000000,0.0000000,0.0000040
79.4795910,1.0000000,,-0.9310484,-0.3648875,-0.0000725,0.0024361,0.0050290,-0.0037609,0.0040161,,,,1.6792129,-4.2830935,-13.8897667,0.0000000,0.0000000,0.0000000,0.0200000,0.0002033,0.0000000,0.0000000,0.0000203,0.0000000,0.0000000,0.0000000,0.0002033,0.0000000,0.0000000,0.0000203,0.0000000,0.0000000,0.0000000,0.0002033,0.0000000,0.0000000,0.0000203,0.0000203,0.0000000,0.0000000,0.0000040,0.0000000,0.0000000,0.0000000,0.0000203,0.0000000,0.0000000,0.0000040,0.0000000,0.0000000,0.0000000,0.0000203,0.0000000,0.0000000,0.0000040
79.4956390,,1.0200000,-0.9310484,-0.3648875,-0.0000725,0.0024361,,,,0.0000000,0.0000000,0.0000000,1.6792129,-4.2830935,-13.8897667,0.0000000,0.0000000,0.0000000,0.1020000,0.0001993,0.0000000,0.0000000,0.0000199,0.0000000,0.0000000,0.0000000,0.0001993,0.0000000,0.0000000,0.0000199,0.0000000,0.0000000,0.0000000,0.0001993,0.0000000,0.0000000,0.0000199,0.0000199,0.0000000,0.0000000,0.0000040,0.0000000,0.0000000,0.0000000,0.0000199,0.0000000,0.0000000,0.0000040,0.0000000,0.0000000,0.0000000,0.0000199,0.0000000,0.0000000,0.0000040
79.5091790,1.0006500,,-0.9310484,-0.3648875,-0.0000786,0.0024415,0.0015456,-0.0028036,0.0056702,,,,1.6792129,-4.2830935,-13.8897667,0.0000000,0.0000000,0.0000000,0.0200130,0.0002001,0.0000000,0.0000000,0.0000200,0.0000000,0.0000000,0.0000000,0.0002001,0.0000000,0.0000000,0.0000200,0.0000000,0.0000000,0.0000000,0.0002001,0.0000000,0.0000000,0.0000200,0.0000200,0.0000000,0.0000000,0.0000040,0.0000000,0.0000000,0.0000000,0.0000200,0.0000000,0.0000000,0.0000040,0.0000000,0.0000000,0.0000000,0.0000200,0.0000000,0.0000000,0.0000040
79.5229240,1.1493500,,-0.9310483,-0.3648875,-0.0000590,0.0024730,-0.0045678,-0.0061625,0.0013702,,,,1.6792129,-4.2830935,-13.8897667,0.0000000,0.0000000,0.0000000,0.0229870,0.0002010,0.0000000,0.0000000,0.0000201,0.0000000,0.0000000,0.0000000,0.0002010,0.0000000,0.0000000,0.0000201,0.0000000,0.0000000,0.0000000,0.0002010,0.0000000,0.0000000,0.0000201,0.0000201,0.0000000,0.0000000,0.0000040,0.0000000,0.0000000,0.0000000,0.0000201,0.0000000,0.0000000,0.0000040,0.0000000,0.0000000,0.0000000,0.0000201,0.0000000,0.0000000,0.0000040
79.5428200,0.9999000,,-0.9310483,-0.3648874,-0.0000497,0.0024830,-0.0051831,-0.0066289,-0.0000473,,,,1.6792129,-4.2830935,-13.8897667,0.0000000,0.0000000,0.0000000,0.0199980,0.0002018,0.0000000,0.0000000,0.0000202,0.0000000,0.0000000,0.0000000,0.0002018,0.0000000,0.0000000,0.0000202,0.0000000,0.0000000,0.0000000,0.0002018,0.0000000,0.0000000,0.0000202,0.0000202,0.0000000,0.0000000,0.0000040,0.0000000,0.0000000,0.0000000,0.0000202,0.0000000,0.0000000,0.0000040,0.0000000,0.0000000,0.0000000,0.0000202,0.0000000,0.0000000,0.0000040
79.5629110,1.0003999,,-0.9310483,-0.3648875,-0.0000591,0.0024790,0.0015741,0.0045820,-0.0007561,,,,1.6792129,-4.2830935,-13.8897667,0.0000000,0.0000000,0.0000000,0.0200080,0.0002026,0.0000000,0.0000000,0.0000202,0.0000000,0.0000000,0.0000000,0.0002026,0.0000000,0.0000000,0.0000202,0.0000000,0.0000000,0.0000000,0.0002026,0.0000000,0.0000000,0.0000202,0.0000202,0.0000000,0.0000000,0.0000040,0.0000000,0.0000000,0.0000000,0.0000202,0.0000000,0.0000000,0.0000040,0.0000000,0.0000000,0.0000000,0.0000202,0.0000000,0.0000000,0.0000040
79.5829230,0.9996500,,-0.9310483,-0.3648874,-0.0000458,0.0024770,-0.0013644,0.0094702,-0.0040401,,,,1.6792129,-4.2830935,-13.8897667,0.0000000,0.0000000,0.0000000,0.0199930,0.0002034,0.0000000,0.0000000,0.0000203,0.0000000,0.0000000,0.0000000,0.0002034,0.0000000,0.0000000,0.0000203,0.0000000,0.0000000,0.0000000,0.0002034,0.0000000,0.0000000,0.0000203,0.0000203,0.0000000,0.0000000,0.0000040,0.0000000,0.0000000,0.0000000,0.0000203,0.0000000,0.0000000,0.0000040,0.0000000,0.0000000,0.0000000,0.0000203,0.0000000,0.0000000,0.0000040
79.5990230,,0.9999700,-0.9310483,-0.3648874,-0.0000458,0.0024923,,,,0.0000000,0.0000000,0.0000000,1.6792129,-4.2830935,-13.8897667,0.0000000,0.0000000,0.0000000,0.0999970,0.0001994,0.0000000,0.0000000,0.0000199,0.0000000,0.0000000,0.0000000,0.0001994,0.0000000,0.0000000,0.0000199,0.0000000,0.0000000,0.0000000,0.0001994,0.0000000,0.0000000,0.0000199,0.0000199,0.0000000,0.0000000,0.0000040,0.0000000,0.0000000,0.0000000,0.0000199,0.0000000,0.0000000,0.0000040,0.0000000,0.0000000,0.0000000,0.0000199,0.0000000,0.0000000,0.0000040
79.6126650,1.0001000,,-0.9310483,-0.3648874,-0.0000466,0.0024923,0.0000731,0.0007068,-0.0064146,,,,1.6792129,-4.2830935,-13.8897667,0.0000000,0.0000000,0.0000000,0.0200020,0.0002002,0.0000000,0.0000000,0.0000200,0.0000000,0.0000000,0.0000000,0.0002002,0.0000000,0.0000000,0.0000200,0.0000000,0.0000000,0.0000000,0.0002002,0.0000000,0.0000000,0.0000200,0.0000200,0.0000000,0.0000000,0.0000040,0.0000000,0.0000000,0.0000000,0.0000200,0.0000000,0.0000000,0.0000040,0.0000000,0.0000000,0.0000000,0.0000200,0.0000000,0.0000000,0.0000040
79.6259300,1.1497999,,-0.9310483,-0.3648874,-0.0000542,0.0025019,0.0027297,-0.0017218,-0.0014983,,,,1.6792129,-4.2830935,-13.8897667,0.0000000,0.0000000,0.0000000,0.0229960,0.0002011,0.0000000,0.0000000,0.0000201,0.0000000,0.0000000,0.0000000,0.0002011,0.0000000,0.0000000,0.0000201,0.0000000,0.0000000,0.0000000,0.0002011,0.0000000,0.0000000,0.0000201,0.0000201,0.0000000,0.0000000,0.0000040,0.0000000,0.0000000,0.0000000,0.0000201,0.0000000,0.0000000,0.0000040,0.0000000,0.0000000,0.0000000,0.0000201,0.0000000,0.0000000,0.0000040
79.6468800,1.0503500,,-0.9310483,-0.3648874,-0.0000351,0.0025188,-0.0007943,-0.0043628,-0.0058761,,,,1.6792129,-4.2830935,-13.8897667,0.0000000,0.0000000,0.0000000,0.0210070,0.0002019,0.0000000,0.0000000,0.0000202,0.0000000,0.0000000,0.0000000,0.0002019,0.0000000,0.0000000,0.0000202,0.0000000,0.0000000,0.0000000,0.0002019,0.0000000,0.0000000,0.0000202,0.0000202,0.0000000,0.0000000,0.0000040,0.0000000,0.0000000,0.0000000,0.0000202,0.0000000,0.0000000,0.0000040,0.0000000,0.0000000,0.0000000,0.0000202,0.0000000,0.0000000,0.0000040
79.6667530,1.0004500,,-0.9310483,-0.3648873,-0.0000114,0.0025223,-0.0030140,-0.0029977,-0.0002525,,,,1.6792129,-4.2830935,-13.8897667,0.0000000,0.0000000,0.0000000,0.0200090,0.0002027,0.0000000,0.0000000,0.0000203,0.0000000,0.0000000,0.0000000,0.0002027,0.0000000,0.0000000,0.0000203,0.0000000,0.0000000,0.0000000,0.0002027,0.0000000,0.0000000,0.0000203,0.0000203,0.0000000,0.0000000,0.0000040,0.0000000,0.0000000,0.0000000,0.0000203,0.0000000,0.0000000,0.0000040,0.0000000,0.0000000,0.0000000,0.0000203,0.0000000,0.0000000,0.0000040
79.6859620,,1.0000700,-0.9310483,-0.3648873,-0.0000090,0.0025297,,,,0.0000000,0.0000000,0.0000000,1.6792129,-4.2830935,-13.8897667,0.0000000,0.0000000,0.0000000,0.1000070,0.0001987,0.0000000,0.0000000,0.0000199,0.0000000,0.0000000,0.0000000,0.0001987,0.0000000,0.0000000,0.0000199,0.0000000,0.0000000,0.0000000,0.0001987,0.0000000,0.0000000,0.0000199,0.0000199,0.0000000,0.0000000,0.0000040,0.0000000,0.0000000,0.0000000,0.0000199,0.0000000,0.0000000,0.0000040,0.0000000,0.0000000,0.0000000,0.0000199,0.0000000,0.0000000,0.0000040
79.6987930,0.9994000,,-0.9310483,-0.3648873,-0.0000090,0.0025297,0.0031774,0.0015987,0.0001179,,,,1.6792129,-4.2830935,-13.8897667,0.0000000,0.0000000,0.0000000,0.0199880,0.0001995,0.0000000,0.0000000,0.0000199,0.0000000,0.0000000,0.0000000,0.0001995,0.0000000,0.0000000,0.0000199,0.0000000,0.0000000,0.0000000,0.0001995,0.0000000,0.0000000,0.0000199,0.0000199,0.0000000,0.0000000,0.0000040,0.0000000,0.0000000,0.0000000,0.0000199,0.0000000,0.0000000,0.0000040,0.0000000,0.0000000,0.0000000,0.0000199,0.0000000,0.0000000,0.0000040
79.7121000,1.2498000,,-0.9310482,-0.3648873,-0.0000043,0.0025676,0.0079669,-0.0040987,0.0012796,,,,1.6792129,-4.2830935,-13.8897667,0.0000000,0.0000000,0.0000000,0.0249960,0.0002005,0.0000000,0.0000000,0.0000200,0.0000000,0.0000000,0.0000000,0.0002005,0.0000000,0.0000000,0.0000200,0.0000000,0.0000000,0.0000000,0.0002005,0.0000000,0.0000000,0.0000200,0.0000200,0.0000000,0.0000000,0.0000040,0.0000000,0.0000000,0.0000000,0.0000200,0.0000000,0.0000000,0.0000040,0.0000000,0.0000000,0.0000000,0.0000200,0.0000000,0.0000000,0.0000040
79.7318710,1.0001000,,-0.9310481,-0.3648872,0.0000022,0.0025969,0.0081644,-0.0015535,0.0033254,,,,1.6792129,-4.2830935,-13.8897667,0.0000000,0.0000000,0.0000000,0.0200020,0.0002013,0.0000000,0.0000000,0.0000201,0.0000000,0.0000000,0.0000000,0.0002013,0.0000000,0.0000000,0.0000201,0.0000000,0.0000000,0.0000000,0.0002013,0.0000000,0.0000000,0.0000201,0.0000201,0.0000000,0.0000000,0.0000040,0.0000000,0.0000000,0.0000000,0.0000201,0.0000000,0.0000000,0.0000040,0.0000000,0.0000000,0.0000000,0.0000201,0.0000000,0.0000000,0.0000040
79.7517740,1.0004500,,-0.9310480,-0.3648872,-0.0000077,0.0026352,0.0091939,-0.0034165,0.0099635,,,,1.6792129,-4.2830935,-13.8897667,0.0000000,0.0000000,0.0000000,0.0200090,0.0002021,0.0000000,0.0000000,0.0000202,0.0000000,0.0000000,0.0000000,0.0002021,0.0000000,0.0000000,0.0000202,0.0000000,0.0000000,0.0000000,0.0002021,0.0000000,0.0000000,0.0000202,0.0000202,0.0000000,0.0000000,0.0000040,0.0000000,0.0000000,0.0000000,0.0000202,0.0000000,0.0000000,0.0000040,0.0000000,0.0000000,0.0000000,0.0000202,0.0000000,0.0000000,0.0000040
79.7717210,0.9996000,,-0.9310480,-0.3648872,-0.0000031,0.0026550,0.0077784,0.0020073,0.0086438,,,,1.6792129,-4.2830935,-13.8897667,0.0000000,0.0000000,0.0000000,0.0199920,0.0002029,0.0000000,0.0000000,0.0000203,0.0000000,0.0000000,0.0000000,0.0002029,0.0000000,0.0000000,0.0000203,0.0000000,0.0000000,0.0000000,0.0002029,0.0000000,0.0000000,0.0000203,0.0000203,0.0000000,0.0000000,0.0000040,0.0000000,0.0000000,0.0000000,0.0000203,0.0000000,0.0000000,0.0000040,0.0000000,0.0000000,0.0000000,0.0000203,0.0000000,0.0000000,0.0000040
79.7884280,,1.0099200,-0.9310480,-0.3648872,-0.0000031,0.0026550,,,,0.0000000,0.0000000,0.0000000,1.6792129,-4.2830935,-13.8897667,0.0000000,0.0000000,0.0000000,0.1009920,0.0001989,0.0000000,0.0000000,0.0000199,0.0000000,0.0000000,0.0000000,0.0001989,0.0000000,0.0000000,0.0000199,0.0000000,0.0000000,0.0000000,0.0001989,0.0000000,0.0000000,0.0000199,0.0000199,0.0000000,0.0000000,0.0000040,0.0000000,0.0000000,0.0000000,0.0000199,0.0000000,0.0000000,0.0000040,0.0000000,0.0000000,0.0000000,0.0000199,0.0000000,0.0000000,0.0000040
79.8015680,1.1004000,,-0.9310480,-0.3648872,0.0000154,0.0026610,0.0039273,0.0010647,-0.0012933,,,,1.6792129,-4.2830935,-13.8897667,0.0000000,0.0000000,0.0000000,0.0220080,0.0001998,0.0000000,0.0000000,0.0000200,0.0000000,0.0000000,0.0000000,0.0001998,0.0000000,0.0000000,0.0000200,0.0000000,0.0000000,0.0000000,0.0001998,0.0000000,0.0000000,0.0000200,0.0000200,0.0000000,0.0000000,0.0000040,0.0000000,0.0000000,0.0000000,0.0000200,0.0000000,0.0000000,0.0000040,0.0000000,0.0000000,0.0000000,0.0000200,0.0000000,0.0000000,0.0000040
79.8148150,1.0494001,,-0.9310480,-0.3648871,0.0000272,0.0026629,-0.0006761,-0.0033129,0.0020389,,,,1.6792129,-4.2830935,-13.8897667,0.0000000,0.0000000,0.0000000,0.0209880,0.0002006,0.0000000,0.0000000,0.0000200,0.0000000,0.0000000,0.0000000,0.0002006,0.0000000,0.0000000,0.0000200,0.0000000,0.0000000,0.0000000,0.0002006,0.0000000,0.0000000,0.0000200,0.0000200,0.0000000,0.0000000,0.0000040,0.0000000,0.0000000,0.0000000,0.0000200,0.0000000,0.0000000,0.0000040,0.0000000,0.0000000,0.0000000,0.0000200,0.0000000,0.0000000,0.0000040
79.8350620,1.0006001,,-0.9310480,-0.3648871,0.0000470,0.0026539,0.0012031,-0.0033196,-0.0077696,,,,1.6792129,-4.2830935,-13.8897667,0.0000000,0.0000000,0.0000000,0.0200120,0.0002014,0.0000000,0.0000000,0.0000201,0.0000000,0.0000000,0.0000000,0.0002014,0.0000000,0.0000000,0.0000201,0.0000000,0.0000000,0.0000000,0.0002014,0.0000000,0.0000000,0.0000201,0.0000201,0.0000000,0.0000000,0.0000040,0.0000000,0.0000000,0.0000000,0.0000201,0.0000000,0.0000000,0.0000040,0.0000000,0.0000000,0.0000000,0.0000201,0.0000000,0.0000000,0.0000040
79.8549380,0.9995500,,-0.9310480,-0.3648871,0.0000461,0.0026547,0.0052936,-0.0008740,-0.0014434,,,,1.6792129,-4.2830935,-13.8897667,0.0000000,0.0000000,0.0000000,0.0199910,0.0002022,0.0000000,0.0000000,0.0000202,0.0000000,0.0000000,0.0000000,0.0002022,0.0000000,0.0000000,0.0000202,0.0000000,0.0000000,0.0000000,0.0002022,0.0000000,0.0000000,0.0000202,0.0000202,0.0000000,0.0000000,0.0000040,0.0000000,0.0000000,0.0000000,0.0000202,0.0000000,0.0000000,0.0000040,0.0000000,0.0000000,0.0000000,0.0000202,0.0000000,0.0000000,0.0000040
79.8749820,1.0003500,,-0.9310480,-0.3648871,0.0000339,0.0026336,0.0017160,0.0015161,-0.0029190,,,,1.6792129,-4.2830935,-13.8897667,0.0000000,0.0000000,0.0000000,0.0200070,0.0002030,0.0000000,0.0000000,0.0000203,0.0000000,0.0000000,0.0000000,0.0002030,0.0000000,0.0000000,0.0000203,0.0000000,0.0000000,0.0000000,0.0002030,0.0000000,0.0000000,0.0000203,0.0000203,0.0000000,0.0000000,0.0000040,0.0000000,0.0000000,0.0000000,0.0000203,0.0000000,0.0000000,0.0000040,0.0000000,0.0000000,0.0000000,0.0000203,0.0000000,0.0000000,0.0000040
79.8908560,,0.9999900,-0.9310480,-0.3648871,0.0000339,0.0026336,,,,0.0000000,0.0000000,0.0000000,1.6792129,-4.2830935,-13.8897667,0.0000000,0.0000000,0.0000000,0.0999990,0.0001990,0.0000000,0.0000000,0.0000199,0.0000000,0.0000000,0.0000000,0.0001990,0.0000000,0.0000000,0.0000199,0.0000000,0.0000000,0.0000000,0.0001990,0.0000000,0.0000000,0.0000199,0.0000199,0.0000000,0.0000000,0.0000040,0.0000000,0.0000000,0.0000000,0.0000199,0.0000000,0.0000000,0.0000040,0.0000000,0.0000000,0.0000000,0.0000199,0.0000000,0.0000000,0.0000040
79.9042760,1.0002000,,-0.9310480,-0.3648872,0.0000344,0.0026147,-0.0037120,0.0019711,0.0041558,,,,1.6792129,-4.2830935,-13.8897667,0.0000000,0.0000000,0.0000000,0.0200040,0.0001998,0.0000000,0.0000000,0.0000200,0.0000000,0.0000000,0.0000000,0.0001998,0.0000000,0.0000000,0.0000200,0.0000000,0.0000000,0.0000000,0.0001998,0.0000000,0.0000000,0.0000200,0.0000200,0.0000000,0.0000000,0.0000040,0.0000000,0.0000000,0.0000000,0.0000200,0.0000000,0.0000000,0.0000040,0.0000000,0.0000000,0.0000000,0.0000200,0.0000000,0.0000000,0.0000040
79.9178010,1.1494499,,-0.9310481,-0.3648871,0.0000479,0.0026082,0.0018977,0.0012373,0.0015896,,,,1.6792129,-4.2830935,-13.8897667,0.0000000,0.0000000,0.0000000,0.0229890,0.0002007,0.0000000,0.0000000,0.0000200,0.0000000,0.0000000,0.0000000,0.0002007,0.0000000,0.0000000,0.0000200,0.0000000,0.0000000,0.0000000,0.0002007,0.0000000,0.0000000,0.0000200,0.0000200,0.0000000,0.0000000,0.0000040,0.0000000,0.0000000,0.0000000,0.0000200,0.0000000,0.0000000,0.0000040,0.0000000,0.0000000,0.0000000,0.0000200,0.0000000,0.0000000,0.0000040
79.9378510,1.0000000,,-0.9310482,-0.3648871,0.0000600,0.0025963,0.0010556,0.0023200,-0.0021349,,,,1.6792129,-4.2830935,-13.8897667,0.0000000,0.0000000,0.0000000,0.0200000,0.0002015,0.0000000,0.0000000,0.0000201,0.0000000,0.0000000,0.0000000,0.0002015,0.0000000,0.0000000,0.0000201,0.0000000,0.0000000,0.0000000,0.0002015,0.0000000,0.0000000,0.0000201,0.0000201,0.0000000,0.0000000,0.0000040,0.0000000,0.0000000,0.0000000,0.0000201,0.0000000,0.0000000,0.0000040,0.0000000,0.0000000,0.0000000,0.0000201,0.0000000,0.0000000,0.0000040
79.9578460,0.9999500,,-0.9310482,-0.3648872,0.0000431,0.0025822,0.0047469,0.0042957,-0.0003350,,,,1.6792129,-4.2830935,-13.8897667,0.0000000,0.0000000,0.0000000,0.0199990,0.0002023,0.0000000,0.0000000,0.0000202,0.0000000,0.0000000,0.0000000,0.0002023,0.0000000,0.0000000,0.0000202,0.0000000,0.0000000,0.0000000,0.0002023,0.0000000,0.0000000,0.0000202,0.0000202,0.0000000,0.0000000,0.0000040,0.0000000,0.0000000,0.0000000,0.0000202,0.0000000,0.0000000,0.0000040,0.0000000,0.0000000,0.0000000,0.0000202,0.0000000,0.0000000,0.0000040
79.9777790,1.0009000,,-0.9310482,-0.3648872,0.0000552,0.0025682,0.0071266,-0.0010641,-0.0018765,,,,1.6792129,-4.2830935,-13.8897667,0.0000000,0.0000000,0.0000000,0.0200180,0.0002031,0.0000000,0.0000000,0.0000203,0.0000000,0.0000000,0.0000000,0.0002031,0.0000000,0.0000000,0.0000203,0.0000000,0.0000000,0.0000000,0.0002031,0.0000000,0.0000000,0.0000203,0.0000203,0.0000000,0.0000000,0.0000040,0.0000000,0.0000000,0.0000000,0.0000203,0.0000000,0.0000000,0.0000040,0.0000000,0.0000000,0.0000000,0.0000203,0.0000000,0.0000000,0.0000040
79.9939610,,1.0000700,-0.9310482,-0.3648872,0.0000552,0.0025682,,,,0.0000000,0.0000000,0.0000000,1.6792129,-4.2830935,-13.8897667,0.0000000,0.0000000,0.0000000,0.1000070,0.0001991,0.0000000,0.0000000,0.0000199,0.0000000,0.0000000,0.0000000,0.0001991,0.0000000,0.0000000,0.0000199,0.0000000,0.0000000,0.0000000,0.0001991,0.0000000,0.0000000,0.0000199,0.0000199,0.0000000,0.0000000,0.0000040,0.0000000,0.0000000,0.0000000,0.0000199,0.0000000,0.0000000,0.0000040,0.0000000,0.0000000,0.0000000,0.0000199,0.0000000,0.0000000,0.0000040
80.0073780,1.0992000,,-0.9310483,-0.3648872,0.0000470,0.0025483,0.0075611,-0.0008449,-0.0026472,,,,1.6792129,-4.2830935,-13.8897667,0.0000000,0.0000000,0.0000000,0.0219840,0.0001999,0.0000000,0.0000000,0.0000200,0.0000000,0.0000000,0.0000000,0.0001999,0.0000000,0.0000000,0.0000200,0.0000000,0.0000000,0.0000000,0.0001999,0.0000000,0.0000000,0.0000200,0.0000200,0.0000000,0.0000000,0.0000040,0.0000000,0.0000000,0.0000000,0.0000200,0.0000000,0.0000000,0.0000040,0.0000000,0.0000000,0.0000000,0.0000200,0.0000000,0.0000000,0.0000040
80.0207990,1.0498501,,-0.9310483,-0.3648872,0.0000345,0.0025364,0.0050775,-0.0009870,-0.0076713,,,,1.6792129,-4.2830935,-13.8897667,0.0000000,0.0000000,0.0000000,0.0209970,0.0002008,0.0000000,0.0000000,0.0000201,0.0000000,0.0000000,0.0000000,0.0002008,0.0000000,0.0000000,0.0000201,0.0000000,0.0000000,0.0000000,0.0002008,0.0000000,0.0000000,0.0000201,0.0000201,0.0000000,0.0000000,0.0000040,0.0000000,0.0000000,0.0000000,0.0000201,0.0000000,0.0000000,0.0000040,0.0000000,0.0000000,0.0000000,0.0000201,0.0000000,0.0000000,0.0000040
80.0409660,1.0000000,,-0.9310482,-0.3648873,0.0000107,0.0025489,0.0052548,-0.0039725,-0.0050563,,,,1.6792129,-4.2830935,-13.8897667,0.0000000,0.0000000,0.0000000,0.0200000,0.0002016,0.0000000,0.0000000,0.0000201,0.0000000,0.0000000,0.0000000,0.0002016,0.0000000,0.0000000,0.0000201,0.0000000,0.0000000,0.0000000,0.0002016,0.0000000,0.0000000,0.0000201,0.0000201,0.0000000,0.0000000,0.0000040,0.0000000,0.0000000,0.0000000,0.0000201,0.0000000,0.0000000,0.0000040,0.0000000,0.0000000,0.0000000,0.0000201,0.0000000,0.0000000,0.0000040
80.0607660,1.0007000,,-0.9310482,-0.3648873,0.0000010,0.0025499,-0.0005083,-0.0064495,0.0004015,,,,1.6792129,-4.2830935,-13.8897667,0.0000000,0.0000000,0.0000000,0.0200140,0.0002024,0.0000000,0.0000000,0.0000202,0.0000000,0.0000000,0.0000000,0.0002024,0.0000000,0.0000000,0.0000202,0.0000000,0.0000000,0.0000000,0.0002024,0.0000000,0.0000000,0.0000202,0.0000202,0.0000000,0.0000000,0.0000040,0.0000000,0.0000000,0.0000000,0.0000202,0.0000000,0.0000000,0.0000040,0.0000000,0.0000000,0.0000000,0.0000202,0.0000000,0.0000000,0.0000040
80.0818460,1.0494001,,-0.9310482,-0.3648873,0.0000141,0.0025535,-0.0001778,-0.0003408,0.0043511,,,,1.6792129,-4.2830935,-13.8897667,0.0000000,0.0000000,0.0000000,0.0209880,0.0002032,0.0000000,0.0000000,0.0000203,0.0000000,0.0000000,0.0000000,0.0002032,0.0000000,0.0000000,0.0000203,0.0000000,0.0000000,0.0000000,0.0002032,0.0000000,0.0000000,0.0000203,0.0000203,0.0000000,0.0000000,0.0000040,0.0000000,0.0000000,0.0000000,0.0000203,0.0000000,0.0000000,0.0000040,0.0000000,0.0000000,0.0000000,0.0000203,0.0000000,0.0000000,0.0000040
80.0977750,,0.9999400,-0.9310482,-0.3648873,0.0000141,0.0025535,,,,0.0000000,0.0000000,0.0000000,1.6792129,-4.2830935,-13.8897667,0.0000000,0.0000000,0.0000000,0.0999940,0.0001992,0.0000000,0.0000000,0.0000199,0.0000000,0.0000000,0.0000000,0.0001992,0.0000000,0.0000000,0.0000199,0.0000000,0.0000000,0.0000000,0.0001992,0.0000000,0.0000000,0.0000199,0.0000199,0.0000000,0.0000000,0.0000040,0.0000000,0.0000000,0.0000000,0.0000199,0.0000000,0.0000000,0.0000040,0.0000000,0.0000000,0.0000000,0.0000199,0.0000000,0.0000000,0.0000040
80.1112590,1.1003000,,-0.9310482,-0.3648873,0.0000101,0.0025725,0.0045879,0.0007833,0.0016873,,,,1.6792129,-4.2830935,-13.8897667,0.0000000,0.0000000,0.0000000,0.0220060,0.0002001,0.0000000,0.0000000,0.0000200,0.0000000,0.0000000,0.0000000,0.0002001,0.0000000,0.0000000,0.0000200,0.0000000,0.0000000,0.0000000,0.0002001,0.0000000,0.0000000,0.0000200,0.0000200,0.0000000,0.0000000,0.0000040,0.0000000,0.0000000,0.0000000,0.0000200,0.0000000,0.0000000,0.0000040,0.0000000,0.0000000,0.0000000,0.0000200,0.0000000,0.0000000,0.0000040
80.1250130,1.0498999,,-0.9310481,-0.3648873,0.0000047,0.0025956,-0.0015894,-0.0020498,0.0047499,,,,1.6792129,-4.2830935,-13.8897667,0.0000000,0.0000000,0.0000000,0.0209980,0.0002009,0.0000000,0.0000000,0.0000201,0.0000000,0.0000000,0.0000000,0.0002009,0.0000000,0.0000000,0.0000201,0.0000000,0.0000000,0.0000000,0.0002009,0.0000000,0.0000000,0.0000201,0.0000201,0.0000000,0.0000000,0.0000040,0.0000000,0.0000000,0.0000000,0.0000201,0.0000000,0.0000000,0.0000040,0.0000000,0.0000000,0.0000000,0.0000201,0.0000000,0.0000000,0.0000040
80.1447130,1.0003999,,-0.9310482,-0.3648873,0.0000112,0.0025882,-0.0022061,0.0021184,0.0006660,,,,1.6792129,-4.2830935,-13.8897667,0.0000000,0.0000000,0.0000000,0.0200080,0.0002017,0.0000000,0.0000000,0.0000201,0.0000000,0.0000000,0.0000000,0.0002017,0.0000000,0.0000000,0.0000201,0.0000000,0.0000000,0.0000000,0.0002017,0.0000000,0.0000000,0.0000201,0.0000201,0.0000000,0.0000000,0.0000040,0.0000000,0.0000000,0.0000000,0.0000201,0.0000000,0.0000000,0.0000040,0.0000000,0.0000000,0.0000000,0.0000201,0.0000000,0.0000000,0.0000040
80.1656890,1.0495000,,-0.9310481,-0.3648873,0.0000044,0.0026000,0.0064882,-0.0050519,-0.0035733,,,,1.6792129,-4.2830935,-13.8897667,0.0000000,0.0000000,0.0000000,0.0209900,0.0002025,0.0000000,0.0000000,0.0000202,0.0000000,0.0000000,0.0000000,0.0002025,0.0000000,0.0000000,0.0000202,0.0000000,0.0000000,0.0000000,0.0002025,0.0000000,0.0000000,0.0000202,0.0000202,0.0000000,0.0000000,0.0000040,0.0000000,0.0000000,0.0000000,0.0000202,0.0000000,0.0000000,0.0000040,0.0000000,0.0000000,0.0000000,0.0000202,0.0000000,0.0000000,0.0000040
80.1880790,,1.0100600,-0.9310482,-0.3648873,-0.0000007,0.0025827,,,,0.0000000,0.0000000,0.0000000,1.6792129,-4.2830935,-13.8897667,0.0000000,0.0000000,0.0000000,0.1010060,0.0001985,0.0000000,0.0000000,0.0000198,0.0000000,0.0000000,0.0000000,0.0001985,0.0000000,0.0000000,0.0000198,0.0000000,0.0000000,0.0000000,0.0001985,0.0000000,0.0000000,0.0000198,0.0000198,0.0000000,0.0000000,0.0000040,0.0000000,0.0000000,0.0000000,0.0000198,0.0000000,0.0000000,0.0000040,0.0000000,0.0000000,0.0000000,0.0000198,0.0000000,0.0000000,0.0000040
80.2026960,1.0998001,,-0.9310482,-0.3648873,-0.0000007,0.0025827,-0.0025771,-0.0028235,-0.0010542,,,,1.6792129,-4.2830935,-13.8897667,0.0000000,0.0000000,0.0000000,0.0219960,0.0001994,0.0000000,0.0000000,0.0000199,0.0000000,0.0000000,0.0000000,0.0001994,0.0000000,0.0000000,0.0000199,0.0000000,0.0000000,0.0000000,0.0001994,0.0000000,0.0000000,0.0000199,0.0000199,0.0000000,0.0000000,0.0000040,0.0000000,0.0000000,0.0000000,0.0000199,0.0000000,0.0000000,0.0000040,0.0000000,0.0000000,0.0000000,0.0000199,0.0000000,0.0000000,0.0000040
80.2161400,1.4000001,,-0.9310482,-0.3648873,0.0000225,0.0025509,-0.0060646,0.0021741,-0.0032127,,,,1.6792129,-4.2830935,-13.8897667,0.0000000,0.0000000,0.0000000,0.0280000,0.0002005,0.0000000,0.0000000,0.0000200,0.0000000,0.0000000,0.0000000,0.0002005,0.0000000,0.0000000,0.0000200,0.0000000,0.0000000,0.0000000,0.0002005,0.0000000,0.0000000,0.0000200,0.0000200,0.0000000,0.0000000,0.0000040,0.0000000,0.0000000,0.0000000,0.0000200,0.0000000,0.0000000,0.0000040,0.0000000,0.0000000,0.0000000,0.0000200,0.0000000,0.0000000,0.0000040
80.2359780,1.0003999,,-0.9310482,-0.3648872,0.0000483,0.0025567,-0.0107303,-0.0018655,-0.0020946,,,,1.6792129,-4.2830935,-13.8897667,0.0000000,0.0000000,0.0000000,0.0200080,0.0002013,0.0000000,0.0000000,0.0000201,0.0000000,0.0000000,0.0000000,0.0002013,0.0000000,0.0000000,0.0000201,0.0000000,0.0000000,0.0000000,0.0002013,0.0000000,0.0000000,0.0000201,0.0000201,0.0000000,0.0000000,0.0000040,0.0000000,0.0000000,0.0000000,0.0000201,0.0000000,0.0000000,0.0000040,0.0000000,0.0000000,0.0000000,0.0000201,0.0000000,0.0000000,0.0000040
80.2567270,1.0497501,,-0.9310483,-0.3648871,0.0000918,0.0025422,-0.0034731,-0.0026799,-0.0027563,,,,1.6792129,-4.2830935,-13.8897667,0.0000000,0.0000000,0.0000000,0.0209950,0.0002022,0.0000000,0.0000000,0.0000202,0.0000000,0.0000000,0.0000000,0.0002022,0.0000000,0.0000000,0.0000202,0.0000000,0.0000000,0.0000000,0.0002022,0.0000000,0.0000000,0.0000202,0.0000202,0.0000000,0.0000000,0.0000040,0.0000000,0.0000000,0.0000000,0.0000202,0.0000000,0.0000000,0.0000040,0.0000000,0.0000000,0.0000000,0.0000202,0.0000000,0.0000000,0.0000040
80.2777220,1.0500000,,-0.9310484,-0.3648871,0.0001285,0.0025250,-0.0029801,-0.0023623,0.0015515,,,,1.6792129,-4.2830935,-13.8897667,0.0000000,0.0000000,0.0000000,0.0210000,0.0002030,0.0000000,0.0000000,0.0000203,0.0000000,0.0000000,0.0000000,0.0002030,0.0000000,0.0000000,0.0000203,0.0000000,0.0000000,0.0000000,0.0002030,0.0000000,0.0000000,0.0000203,0.0000203,0.0000000,0.0000000,0.0000040,0.0000000,0.0000000,0.0000000,0.0000203,0.0000000,0.0000000,0.0000040,0.0000000,0.0000000,0.0000000,0.0000203,0.0000000,0.0000000,0.0000040
80.2935960,,1.0199400,-0.9310484,-0.3648871,0.0001285,0.0025250,,,,0.0000000,0.0000000,0.0000000,1.6792129,-4.2830935,-13.8897667,0.0000000,0.0000000,0.0000000,0.1019940,0.0001990,0.0000000,0.0000000,0.0000199,0.0000000,0.0000000,0.0000000,0.0001990,0.0000000,0.0000000,0.0000199,0.0000000,0.0000000,0.0000000,0.0001990,0.0000000,0.0000000,0.0000199,0.0000199,0.0000000,0.0000000,0.0000040,0.0000000,0.0000000,0.0000000,0.0000199,0.0000000,0.0000000,0.0000040,0.0000000,0.0000000,0.0000000,0.0000199,0.0000000,0.0000000,0.0000040
80.3073130,1.1000000,,-0.9310484,-0.3648871,0.0001375,0.0025308,0.0004097,-0.0024247,-0.0085016,,,,1.6792129,-4.2830935,-13.8897667,0.0000000,0.0000000,0.0000000,0.0220000,0.0001998,0.0000000,0.0000000,0.0000200,0.0000000,0.0000000,0.0000000,0.0001998,0.0000000,0.0000000,0.0000200,0.0000000,0.0000000,0.0000000,0.0001998,0.0000000,0.0000000,0.0000200,0.0000200,0.0000000,0.0000000,0.0000040,0.0000000,0.0000000,0.0000000,0.0000200,0.0000000,0.0000000,0.0000040,0.0000000,0.0000000,0.0000000,0.0000200,0.0000000,0.0000000,0.0000040
80.3210200,1.0505501,,-0.9310483,-0.3648870,0.0001489,0.0025472,0.0033252,-0.0034020,-0.0008328,,,,1.6792129,-4.2830935,-13.8897667,0.0000000,0.0000000,0.0000000,0.0210110,0.0002007,0.0000000,0.0000000,0.0000200,0.0000000,0.0000000,0.0000000,0.0002007,0.0000000,0.0000000,0.0000200,0.0000000,0.0000000,0.0000000,0.0002007,0.0000000,0.0000000,0.0000200,0.0000200,0.0000000,0.0000000,0.0000040,0.0000000,0.0000000,0.0000000,0.0000200,0.0000000,0.0000000,0.0000040,0.0000000,0.0000000,0.0000000,0.0000200,0.0000000,0.0000000,0.0000040
80.3407150,1.0000000,,-0.9310483,-0.3648870,0.0001463,0.0025727,0.0059809,-0.0104595,0.0005602,,,,1.6792129,-4.2830935,-13.8897667,0.0000000,0.0000000,0.0000000,0.0200000,0.0002015,0.0000000,0.0000000,0.0000201,0.0000000,0.0000000,0.0000000,0.0002015,0.0000000,0.0000000,0.0000201,0.0000000,0.0000000,0.0000000,0.0002015,0.0000000,0.0000000,0.0000201,0.0000201,0.0000000,0.0000000,0.0000040,0.0000000,0.0000000,0.0000000,0.0000201,0.0000000,0.0000000,0.0000040,0.0000000,0.0000000,0.0000000,0.0000201,0.0000000,0.0000000,0.0000040
80.3617780,1.0494001,,-0.9310483,-0.3648871,0.0001270,0.0025763,0.0092313,-0.0076712,0.0012566,,,,1.6792129,-4.2830935,-13.8897667,0.0000000,0.0000000,0.0000000,0.0209880,0.0002023,0.0000000,0.0000000,0.0000202,0.0000000,0.0000000,0.0000000,0.0002023,0.0000000,0.0000000,0.0000202,0.0000000,0.0000000,0.0000000,0.0002023,0.0000000,0.0000000,0.0000202,0.0000202,0.0000000,0.0000000,0.0000040,0.0000000,0.0000000,0.0000000,0.0000202,0.0000000,0.0000000,0.0000040,0.0000000,0.0000000,0.0000000,0.0000202,0.0000000,0.0000000,0.0000040
80.3831070,1.0499500,,-0.9310483,-0.3648871,0.0001053,0.0025716,0.0035170,-0.0033626,0.0011166,,,,1.6792129,-4.2830935,-13.8897667,0.0000000,0.0000000,0.0000000,0.0209990,0.0002032,0.0000000,0.0000000,0.0000203,0.0000000,0.0000000,0.0000000,0.0002032,0.0000000,0.0000000,0.0000203,0.0000000,0.0000000,0.0000000,0.0002032,0.0000000,0.0000000,0.0000203,0.0000203,0.0000000,0.0000000,0.0000040,0.0000000,0.0000000,0.0000000,0.0000203,0.0000000,0.0000000,0.0000040,0.0000000,0.0000000,0.0000000,0.0000203,0.0000000,0.0000000,0.0000040
80.4001120,,1.0200100,-0.9310483,-0.3648871,0.0001053,0.0025582,,,,0.0000000,0.0000000,0.0000000,1.6792129,-4.2830935,-13.8897667,0.0000000,0.0000000,0.0000000,0.1020010,0.0001991,0.0000000,0.0000000,0.0000199,0.0000000,0.0000000,0.0000000,0.0001991,0.0000000,0.0000000,0.0000199,0.0000000,0.0000000,0.0000000,0.0001991,0.0000000,0.0000000,0.0000199,0.0000199,0.0000000,0.0000000,0.0000040,0.0000000,0.0000000,0.0000000,0.0000199,0.0000000,0.0000000,0.0000040,0.0000000,0.0000000,0.0000000,0.0000199,0.0000000,0.0000000,0.0000040
80.4146710,1.0000000,,-0.9310483,-0.3648871,0.0000945,0.0025582,-0.0025063,0.0004778,0.0061735,,,,1.6792129,-4.2830935,-13.8897667,0.0000000,0.0000000,0.0000000,0.0200000,0.0001999,0.0000000,0.0000000,0.0000200,0.0000000,0.0000000,0.0000000,0.0001999,0.0000000,0.0000000,0.0000200,0.0000000,0.0000000,0.0000000,0.0001999,0.0000000,0.0000000,0.0000200,0.0000200,0.0000000,0.0000000,0.0000040,0.0000000,0.0000000,0.0000000,0.0000200,0.0000000,0.0000000,0.0000040,0.0000000,0.0000000,0.0000000,0.0000200,0.0000000,0.0000000,0.0000040
80.4276120,1.2499501,,-0.9310483,-0.3648871,0.0000895,0.0025634,0.0027752,0.0014444,-0.0035050,,,,1.6792129,-4.2830935,-13.8897667,0.0000000,0.0000000,0.0000000,0.0249990,0.0002009,0.0000000,0.0000000,0.0000201,0.0000000,0.0000000,0.0000000,0.0002009,0.0000000,0.0000000,0.0000201,0.0000000,0.0000000,0.0000000,0.0002009,0.0000000,0.0000000,0.0000201,0.0000201,0.0000000,0.0000000,0.0000040,0.0000000,0.0000000,0.0000000,0.0000201,0.0000000,0.0000000,0.0000040,0.0000000,0.0000000,0.0000000,0.0000201,0.0000000,0.0000000,0.0000040
80.4487910,1.0502501,,-0.9310483,-0.3648871,0.0000893,0.0025668,-0.0001993,0.0014393,-0.0010201,,,,1.6792129,-4.2830935,-13.8897667,0.0000000,0.0000000,0.0000000,0.0210050,0.0002018,0.0000000,0.0000000,0.0000202,0.0000000,0.0000000,0.0000000,0.0002018,0.0000000,0.0000000,0.0000202,0.0000000,0.0000000,0.0000000,0.0002018,0.0000000,0.0000000,0.0000202,0.0000202,0.0000000,0.0000000,0.0000040,0.0000000,0.0000000,0.0000000,0.0000202,0.0000000,0.0000000,0.0000040,0.0000000,0.0000000,0.0000000,0.0000202,0.0000000,0.0000000,0.0000040
80.4701520,1.0502001,,-0.9310483,-0.3648871,0.0000891,0.0025652,-0.0019231,0.0019251,0.0011989,,,,1.6792129,-4.2830935,-13.8897667,0.0000000,0.0000000,0.0000000,0.0210040,0.0002026,0.0000000,0.0000000,0.0000202,0.0000000,0.0000000,0.0000000,0.0002026,0.0000000,0.0000000,0.0000202,0.0000000,0.0000000,0.0000000,0.0002026,0.0000000,0.0000000,0.0000202,0.0000202,0.0000000,0.0000000,0.0000040,0.0000000,0.0000000,0.0000000,0.0000202,0.0000000,0.0000000,0.0000040,0.0000000,0.0000000,0.0000000,0.0000202,0.0000000,0.0000000,0.0000040
80.4921280,,0.9999700,-0.9310482,-0.3648872,0.0000758,0.0025723,,,,0.0000000,0.0000000,0.0000000,1.6792129,-4.2830935,-13.8897667,0.0000000,0.0000000,0.0000000,0.0999970,0.0001986,0.0000000,0.0000000,0.0000198,0.0000000,0.0000000,0.0000000,0.0001986,0.0000000,0.0000000,0.0000198,0.0000000,0.0000000,0.0000000,0.0001986,0.0000000,0.0000000,0.0000198,0.0000198,0.0000000,0.0000000,0.0000040,0.0000000,0.0000000,0.0000000,0.0000198,0.0000000,0.0000000,0.0000040,0.0000000,0.0000000,0.0000000,0.0000198,0.0000000,0.0000000,0.0000040
80.5068070,1.0502501,,-0.9310482,-0.3648872,0.0000758,0.0025723,0.0042646,0.0014356,-0.0006212,,,,1.6792129,-4.2830935,-13.8897667,0.0000000,0.0000000,0.0000000,0.0210050,0.0001994,0.0000000,0.0000000,0.0000199,0.0000000,0.0000000,0.0000000,0.0001994,0.0000000,0.0000000,0.0000199,0.0000000,0.0000000,0.0000000,0.0001994,0.0000000,0.0000000,0.0000199,0.0000199,0.0000000,0.0000000,0.0000040,0.0000000,0.0000000,0.0000000,0.0000199,0.0000000,0.0000000,0.0000040,0.0000000,0.0000000,0.0000000,0.0000199,0.0000000,0.0000000,0.0000040
80.5198570,1.4492500,,-0.9310064,-0.3649943,0.0000098,0.0024760,0.0302695,-0.4455713,0.0961249,,,,1.6790950,-4.2829475,-13.8898058,-0.0081388,0.0100828,-0.0027249,0.0289850,0.0002006,0.0000000,0.0000000,0.0000200,0.0000000,0.0000000,0.0000000,0.0002006,0.0000000,0.0000000,0.0000200,0.0000000,0.0000000,0.0000000,0.0002006,0.0000000,0.0000000,0.0000200,0.0000200,0.0000000,0.0000000,0.0000040,0.0000000,0.0000000,0.0000000,0.0000200,0.0000000,0.0000000,0.0000040,0.0000000,0.0000000,0.0000000,0.0000200,0.0000000,0.0000000,0.0000040
80.5398930,1.0002501,,-0.9309860,-0.3650399,0.0002486,0.0032007,0.0361308,-0.1691434,0.0824710,,,,1.6789144,-4.2827158,-13.8898764,-0.0099131,0.0130654,-0.0043526,0.0200050,0.0002014,0.0000000,0.0000000,0.0000201,0.0000000,0.0000000,0.0000000,0.0002014,0.0000000,0.0000000,0.0000201,0.0000000,0.0000000,0.0000000,0.0002014,0.0000000,0.0000000,0.0000201,0.0000201,0.0000000,0.0000000,0.0000040,0.0000000,0.0000000,0.0000000,0.0000201,0.0000000,0.0000000,0.0000040,0.0000000,0.0000000,0.0000000,0.0000201,0.0000000,0.0000000,0.0000040
80.5597920,1.0000000,,-0.9309815,-0.3650526,-0.0000441,0.0030918,0.0664739,-0.2013014,0.4018236,,,,1.6786984,-4.2824154,-13.8900433,-0.0116920,0.0169685,-0.0123628,0.0200000,0.0002022,0.0000000,0.0000000,0.0000202,0.0000000,0.0000000,0.0000000,0.0002022,0.0000000,0.0000000,0.0000202,0.0000000,0.0000000,0.0000000,0.0002022,0.0000000,0.0000000,0.0000202,0.0000202,0.0000000,0.0000000,0.0000040,0.0000000,0.0000000,0.0000000,0.0000202,0.0000000,0.0000000,0.0000040,0.0000000,0.0000000,0.0000000,0.0000202,0.0000000,0.0000000,0.0000040
80.5808890,1.0500000,,-0.9308900,-0.3652881,0.0000338,0.0028524,-0.0318189,-0.0810813,0.3808434,,,,1.6784354,-4.2820501,-13.8903866,-0.0133570,0.0178046,-0.0203526,0.0210000,0.0002030,0.0000000,0.0000000,0.0000203,0.0000000,0.0000000,0.0000000,0.0002030,0.0000000,0.0000000,0.0000203,0.0000000,0.0000000,0.0000000,0.0002030,0.0000000,0.0000000,0.0000203,0.0000203,0.0000000,0.0000000,0.0000040,0.0000000,0.0000000,0.0000000,0.0000203,0.0000000,0.0000000,0.0000040,0.0000000,0.0000000,0.0000000,0.0000203,0.0000000,0.0000000,0.0000040
80.5969750,,1.0200900,-0.9308900,-0.3652881,0.0000338,0.0028524,,,,0.0000000,0.0000000,0.0000000,1.6784509,-4.2820711,-13.8903742,-0.0133555,0.0178026,-0.0203514,0.1020090,0.0001990,0.0000000,0.0000000,0.0000199,0.0000000,0.0000000,0.0000000,0.0001990,0.0000000,0.0000000,0.0000199,0.0000000,0.0000000,0.0000000,0.0001990,0.0000000,0.0000000,0.0000199,0.0000199,0.0000000,0.0000000,0.0000040,0.0000000,0.0000000,0.0000000,0.0000199,0.0000000,0.0000000,0.0000040,0.0000000,0.0000000,0.0000000,0.0000199,0.0000000,0.0000000,0.0000040
80.6107590,1.0998499,,-0.9308215,-0.3654653,0.0001521,0.0024771,0.4284036,-0.2835979,1.0283123,,,,1.6781859,-4.2815576,-13.8910704,-0.0107409,0.0288876,-0.0429270,0.0219970,0.0001999,0.0000000,0.0000000,0.0000200,0.0000000,0.0000000,0.0000000,0.0001999,0.0000000,0.0000000,0.0000200,0.0000000,0.0000000,0.0000000,0.0001999,0.0000000,0.0000000,0.0000200,0.0000200,0.0000000,0.0000000,0.0000040,0.0000000,0.0000000,0.0000000,0.0000200,0.0000000,0.0000000,0.0000040,0.0000000,0.0000000,0.0000000,0.0000200,0.0000000,0.0000000,0.0000040
80.6240130,1.0499500,,-0.9309379,-0.3651682,-0.0002976,0.0025037,0.1556996,0.1210337,-0.2534220,,,,1.6780038,-4.2809477,-13.8919163,-0.0066085,0.0292209,-0.0376090,0.0209990,0.0002007,0.0000000,0.0000000,0.0000201,0.0000000,0.0000000,0.0000000,0.0002007,0.0000000,0.0000000,0.0000201,0.0000000,0.0000000,0.0000000,0.0002007,0.0000000,0.0000000,0.0000201,0.0000201,0.0000000,0.0000000,0.0000040,0.0000000,0.0000000,0.0000000,0.0000201,0.0000000,0.0000000,0.0000040,0.0000000,0.0000000,0.0000000,0.0000201,0.0000000,0.0000000,0.0000040
80.6452660,1.0003999,,-0.9309795,-0.3650566,0.0000129,0.0031811,-0.1488424,0.0027089,-1.2805272,,,,1.6778507,-4.2803850,-13.8924122,-0.0086958,0.0270054,-0.0119959,0.0200080,0.0002015,0.0000000,0.0000000,0.0000201,0.0000000,0.0000000,0.0000000,0.0002015,0.0000000,0.0000000,0.0000201,0.0000000,0.0000000,0.0000000,0.0002015,0.0000000,0.0000000,0.0000201,0.0000201,0.0000000,0.0000000,0.0000040,0.0000000,0.0000000,0.0000000,0.0000201,0.0000000,0.0000000,0.0000040,0.0000000,0.0000000,0.0000000,0.0000201,0.0000000,0.0000000,0.0000040
80.6640810,0.9999000,,-0.9309824,-0.3650430,0.0001800,0.0038229,0.2016179,0.2619898,-0.2831011,,,,1.6777421,-4.2798562,-13.8925953,-0.0021596,0.0258636,-0.0063627,0.0199980,0.0002023,0.0000000,0.0000000,0.0000202,0.0000000,0.0000000,0.0000000,0.0002023,0.0000000,0.0000000,0.0000202,0.0000000,0.0000000,0.0000000,0.0002023,0.0000000,0.0000000,0.0000202,0.0000202,0.0000000,0.0000000,0.0000040,0.0000000,0.0000000,0.0000000,0.0000202,0.0000000,0.0000000,0.0000040,0.0000000,0.0000000,0.0000000,0.0000202,0.0000000,0.0000000,0.0000040
80.6851720,1.0001000,,-0.9310855,-0.3647845,-0.0006178,0.0031955,-0.0542737,0.4951764,0.3445258,,,,1.6777582,-4.2794185,-13.8927917,0.0037636,0.0179019,-0.0133120,0.0200020,0.0002031,0.0000000,0.0000000,0.0000203,0.0000000,0.0000000,0.0000000,0.0002031,0.0000000,0.0000000,0.0000203,0.0000000,0.0000000,0.0000000,0.0002031,0.0000000,0.0000000,0.0000203,0.0000203,0.0000000,0.0000000,0.0000040,0.0000000,0.0000000,0.0000000,0.0000203,0.0000000,0.0000000,0.0000040,0.0000000,0.0000000,0.0000000,0.0000203,0.0000000,0.0000000,0.0000040
80.7024370,,1.0199400,-0.9310855,-0.3647845,-0.0006178,0.0027267,,,,-0.6886113,-0.5844027,-0.0029278,1.6640633,-4.2911053,-13.8928022,0.0023955,0.0167344,-0.0133130,0.1019940,0.0001991,0.0000000,0.0000000,0.0000199,0.0000000,0.0000000,0.0000000,0.0001991,0.0000000,0.0000000,0.0000199,0.0000000,0.0000000,0.0000000,0.0001991,0.0000000,0.0000000,0.0000199,0.0000199,0.0000000,0.0000000,0.0000040,0.0000000,0.0000000,0.0000000,0.0000199,0.0000000,0.0000000,0.0000040,0.0000000,0.0000000,0.0000000,0.0000199,0.0000000,0.0000000,0.0000040
80.7157990,1.0003500,,-0.9311304,-0.3646736,-0.0009164,0.0027267,-0.2536994,0.6811362,0.2286594,,,,1.6641666,-4.2909045,-13.8931150,0.0079232,0.0033110,-0.0179666,0.0200070,0.0001999,0.0000000,0.0000000,0.0000200,0.0000000,0.0000000,0.0000000,0.0001999,0.0000000,0.0000000,0.0000200,0.0000000,0.0000000,0.0000000,0.0001999,0.0000000,0.0000000,0.0000200,0.0000200,0.0000000,0.0000000,0.0000040,0.0000000,0.0000000,0.0000000,0.0000200,0.0000000,0.0000000,0.0000040,0.0000000,0.0000000,0.0000000,0.0000200,0.0000000,0.0000000,0.0000040
80.7290210,1.2492501,,-0.9311060,-0.3647332,-0.0010569,0.0030924,0.0052991,-0.2108464,0.2971834,,,,1.6643211,-4.2907720,-13.8936567,0.0044401,0.0073157,-0.0253647,0.0249850,0.0002009,0.0000000,0.0000000,0.0000201,0.0000000,0.0000000,0.0000000,0.0002009,0.0000000,0.0000000,0.0000201,0.0000000,0.0000000,0.0000000,0.0002009,0.0000000,0.0000000,0.0000201,0.0000201,0.0000000,0.0000000,0.0000040,0.0000000,0.0000000,0.0000000,0.0000201,0.0000000,0.0000000,0.0000040,0.0000000,0.0000000,0.0000000,0.0000201,0.0000000,0.0000000,0.0000040
80.7502370,1.0005001,,-0.9310795,-0.3647933,-0.0015608,0.0036640,-0.0154627,-0.7860644,0.4552171,,,,1.6643008,-4.2905116,-13.8942547,-0.0064698,0.0187204,-0.0343856,0.0200100,0.0002017,0.0000000,0.0000000,0.0000201,0.0000000,0.0000000,0.0000000,0.0002017,0.0000000,0.0000000,0.0000201,0.0000000,0.0000000,0.0000000,0.0002017,0.0000000,0.0000000,0.0000201,0.0000201,0.0000000,0.0000000,0.0000040,0.0000000,0.0000000,0.0000000,0.0000201,0.0000000,0.0000000,0.0000040,0.0000000,0.0000000,0.0000000,0.0000201,0.0000000,0.0000000,0.0000040
80.7691030,1.0000000,,-0.9311334,-0.3646496,-0.0017222,0.0041792,0.0996448,-0.4855386,0.2856911,,,,1.6641201,-4.2900519,-13.8949986,-0.0116005,0.0272533,-0.0400233,0.0200000,0.0002025,0.0000000,0.0000000,0.0000202,0.0000000,0.0000000,0.0000000,0.0002025,0.0000000,0.0000000,0.0000202,0.0000000,0.0000000,0.0000000,0.0002025,0.0000000,0.0000000,0.0000202,0.0000202,0.0000000,0.0000000,0.0000040,0.0000000,0.0000000,0.0000000,0.0000202,0.0000000,0.0000000,0.0000040,0.0000000,0.0000000,0.0000000,0.0000202,0.0000000,0.0000000,0.0000040
80.7901810,0.9999000,,-0.9311926,-0.3644900,-0.0018695,0.0047866,-0.0106558,-0.1547337,-0.2365795,,,,1.6638656,-4.2894859,-13.8957510,-0.0138575,0.0293320,-0.0352706,0.0199980,0.0002033,0.0000000,0.0000000,0.0000203,0.0000000,0.0000000,0.0000000,0.0002033,0.0000000,0.0000000,0.0000203,0.0000000,0.0000000,0.0000000,0.0002033,0.0000000,0.0000000,0.0000203,0.0000203,0.0000000,0.0000000,0.0000040,0.0000000,0.0000000,0.0000000,0.0000203,0.0000000,0.0000000,0.0000040,0.0000000,0.0000000,0.0000000,0.0000203,0.0000000,0.0000000,0.0000040
80.8074410,,1.0000900,-0.9311926,-0.3644900,-0.0018695,0.0057661,,,,-0.6653601,-0.6246179,-0.0064147,1.6506130,-4.3019629,-13.8958197,-0.0151815,0.0280856,-0.0352775,0.1000090,0.0001992,0.0000000,0.0000000,0.0000199,0.0000000,0.0000000,0.0000000,0.0001992,0.0000000,0.0000000,0.0000199,0.0000000,0.0000000,0.0000000,0.0001992,0.0000000,0.0000000,0.0000199,0.0000199,0.0000000,0.0000000,0.0000040,0.0000000,0.0000000,0.0000000,0.0000199,0.0000000,0.0000000,0.0000040,0.0000000,0.0000000,0.0000000,0.0000199,0.0000000,0.0000000,0.0000040
80.8209000,1.0007000,,-0.9312747,-0.3642628,-0.0022777,0.0057661,-0.1560313,0.0876112,-0.1515386,,,,1.6502980,-4.3014350,-13.8964958,-0.0162860,0.0246414,-0.0322871,0.0200140,0.0002000,0.0000000,0.0000000,0.0000200,0.0000000,0.0000000,0.0000000,0.0002000,0.0000000,0.0000000,0.0000200,0.0000000,0.0000000,0.0000000,0.0002000,0.0000000,0.0000000,0.0000200,0.0000200,0.0000000,0.0000000,0.0000040,0.0000000,0.0000000,0.0000000,0.0000200,0.0000000,0.0000000,0.0000040,0.0000000,0.0000000,0.0000000,0.0000200,0.0000000,0.0000000,0.0000040
80.8340420,1.2492501,,-0.9313867,-0.3639631,-0.0027138,0.0063814,-0.0891088,-0.1693216,0.3658277,,,,1.6498349,-4.3007979,-13.8974161,-0.0207871,0.0263680,-0.0414061,0.0249850,0.0002010,0.0000000,0.0000000,0.0000201,0.0000000,0.0000000,0.0000000,0.0002010,0.0000000,0.0000000,0.0000201,0.0000000,0.0000000,0.0000000,0.0002010,0.0000000,0.0000000,0.0000201,0.0000201,0.0000000,0.0000000,0.0000040,0.0000000,0.0000000,0.0000000,0.0000201,0.0000000,0.0000000,0.0000040,0.0000000,0.0000000,0.0000000,0.0000201,0.0000000,0.0000000,0.0000040
80.8549860,1.0498000,,-0.9313812,-0.3639710,-0.0027177,0.0067646,-0.1185366,-0.0423710,0.2243643,,,,1.6493729,-4.3002543,-13.8983355,-0.0232190,0.0254032,-0.0461317,0.0209960,0.0002019,0.0000000,0.0000000,0.0000202,0.0000000,0.0000000,0.0000000,0.0002019,0.0000000,0.0000000,0.0000202,0.0000000,0.0000000,0.0000000,0.0002019,0.0000000,0.0000000,0.0000202,0.0000202,0.0000000,0.0000000,0.0000040,0.0000000,0.0000000,0.0000000,0.0000202,0.0000000,0.0000000,0.0000040,0.0000000,0.0000000,0.0000000,0.0000202,0.0000000,0.0000000,0.0000040
80.8762540,1.0002999,,-0.9313530,-0.3640342,-0.0026841,0.0072605,-0.3423875,-0.1472460,-0.6806035,,,,1.6488382,-4.2997732,-13.8991222,-0.0302469,0.0227127,-0.0325536,0.0200060,0.0002027,0.0000000,0.0000000,0.0000202,0.0000000,0.0000000,0.0000000,0.0002027,0.0000000,0.0000000,0.0000202,0.0000000,0.0000000,0.0000000,0.0002027,0.0000000,0.0000000,0.0000202,0.0000202,0.0000000,0.0000000,0.0000040,0.0000000,0.0000000,0.0000000,0.0000202,0.0000000,0.0000000,0.0000040,0.0000000,0.0000000,0.0000000,0.0000202,0.0000000,0.0000000,0.0000040
80.8972810,,0.9999500,-0.9312931,-0.3641866,-0.0027542,0.0073007,,,,-0.4908909,-0.3895829,-0.0058902,1.6391215,-4.3075562,-13.8991737,-0.0312176,0.0219352,-0.0325587,0.0999950,0.0001987,0.0000000,0.0000000,0.0000198,0.0000000,0.0000000,0.0000000,0.0001987,0.0000000,0.0000000,0.0000198,0.0000000,0.0000000,0.0000000,0.0001987,0.0000000,0.0000000,0.0000198,0.0000198,0.0000000,0.0000000,0.0000040,0.0000000,0.0000000,0.0000000,0.0000198,0.0000000,0.0000000,0.0000040,0.0000000,0.0000000,0.0000000,0.0000198,0.0000000,0.0000000,0.0000040
80.9107510,0.9996500,,-0.9312931,-0.3641866,-0.0027542,0.0073007,-0.0951974,0.1001593,-0.3056948,,,,1.6384970,-4.3071461,-13.8997641,-0.0312564,0.0190778,-0.0264908,0.0199930,0.0001995,0.0000000,0.0000000,0.0000199,0.0000000,0.0000000,0.0000000,0.0001995,0.0000000,0.0000000,0.0000199,0.0000000,0.0000000,0.0000000,0.0001995,0.0000000,0.0000000,0.0000199,0.0000199,0.0000000,0.0000000,0.0000040,0.0000000,0.0000000,0.0000000,0.0000199,0.0000000,0.0000000,0.0000040,0.0000000,0.0000000,0.0000000,0.0000199,0.0000000,0.0000000,0.0000040
80.9251830,1.4499501,,-0.9312664,-0.3642502,-0.0030722,0.0074150,-0.0305470,0.2216342,-0.1900178,,,,1.6376444,-4.3066711,-13.9004536,-0.0275483,0.0136674,-0.0210655,0.0289990,0.0002006,0.0000000,0.0000000,0.0000200,0.0000000,0.0000000,0.0000000,0.0002006,0.0000000,0.0000000,0.0000200,0.0000000,0.0000000,0.0000000,0.0002006,0.0000000,0.0000000,0.0000200,0.0000200,0.0000000,0.0000000,0.0000040,0.0000000,0.0000000,0.0000000,0.0000200,0.0000000,0.0000000,0.0000040,0.0000000,0.0000000,0.0000000,0.0000200,0.0000000,0.0000000,0.0000040
80.9440610,1.0003999,,-0.9312605,-0.3642701,-0.0029808,0.0072237,0.0661474,0.1663667,-0.2022400,,,,1.6371255,-4.3064137,-13.9008350,-0.0243187,0.0120571,-0.0170428,0.0200080,0.0002014,0.0000000,0.0000000,0.0000201,0.0000000,0.0000000,0.0000000,0.0002014,0.0000000,0.0000000,0.0000201,0.0000000,0.0000000,0.0000000,0.0002014,0.0000000,0.0000000,0.0000201,0.0000201,0.0000000,0.0000000,0.0000040,0.0000000,0.0000000,0.0000000,0.0000201,0.0000000,0.0000000,0.0000040,0.0000000,0.0000000,0.0000000,0.0000201,0.0000000,0.0000000,0.0000040
80.9640110,0.9999500,,-0.9312433,-0.3643162,-0.0029094,0.0071392,-0.0119321,0.0972672,-0.1170426,,,,1.6366506,-4.3061886,-13.9011526,-0.0231745,0.0104305,-0.0147266,0.0199990,0.0002022,0.0000000,0.0000000,0.0000202,0.0000000,0.0000000,0.0000000,0.0002022,0.0000000,0.0000000,0.0000202,0.0000000,0.0000000,0.0000000,0.0002022,0.0000000,0.0000000,0.0000202,0.0000202,0.0000000,0.0000000,0.0000040,0.0000000,0.0000000,0.0000000,0.0000202,0.0000000,0.0000000,0.0000040,0.0000000,0.0000000,0.0000000,0.0000202,0.0000000,0.0000000,0.0000040
80.9837920,1.0002999,,-0.9312204,-0.3643743,-0.0028500,0.0071940,-0.0448912,0.1520272,-0.3019829,,,,1.6366506,-4.3061886,-13.9011526,0.0000000,0.0000000,0.0000000,0.0200060,0.0002030,0.0000000,0.0000000,0.0000203,0.0000000,0.0000000,0.0000000,0.0002030,0.0000000,0.0000000,0.0000203,0.0000000,0.0000000,0.0000000,0.0002030,0.0000000,0.0000000,0.0000203,0.0000203,0.0000000,0.0000000,0.0000040,0.0000000,0.0000000,0.0000000,0.0000203,0.0000000,0.0000000,0.0000040,0.0000000,0.0000000,0.0000000,0.0000203,0.0000000,0.0000000,0.0000040
81.0012100,,1.0000000,-0.9312204,-0.3643743,-0.0028500,0.0071940,,,,-0.1069344,-0.0975340,-0.0015165,1.6345719,-4.3081565,-13.9011431,-0.0002077,-0.0001966,0.0000009,0.1000000,0.0001990,0.0000000,0.0000000,0.0000199,0.0000000,0.0000000,0.0000000,0.0001990,0.0000000,0.0000000,0.0000199,0.0000000,0.0000000,0.0000000,0.0001990,0.0000000,0.0000000,0.0000199,0.0000199,0.0000000,0.0000000,0.0000040,0.0000000,0.0000000,0.0000000,0.0000199,0.0000000,0.0000000,0.0000040,0.0000000,0.0000000,0.0000000,0.0000199,0.0000000,0.0000000,0.0000040
81.0138020,1.0994999,,-0.9312001,-0.3644370,-0.0028957,0.0065664,-0.1110839,0.1771565,-0.1293011,,,,1.6345767,-4.3082108,-13.9011126,0.0006410,-0.0047558,0.0027797,0.0219900,0.0001999,0.0000000,0.0000000,0.0000200,0.0000000,0.0000000,0.0000000,0.0001999,0.0000000,0.0000000,0.0000200,0.0000000,0.0000000,0.0000000,0.0001999,0.0000000,0.0000000,0.0000200,0.0000200,0.0000000,0.0000000,0.0000040,0.0000000,0.0000000,0.0000000,0.0000200,0.0000000,0.0000000,0.0000040,0.0000000,0.0000000,0.0000000,0.0000200,0.0000000,0.0000000,0.0000040
81.0270460,1.0498501,,-0.9311823,-0.3644952,-0.0029418,0.0057764,-0.0484161,0.1997996,-0.0595541,,,,1.6345767,-4.3082108,-13.9011126,0.0000000,0.0000000,0.0000000,0.0209970,0.0002007,0.0000000,0.0000000,0.0000201,0.0000000,0.0000000,0.0000000,0.0002007,0.0000000,0.0000000,0.0000201,0.0000000,0.0000000,0.0000000,0.0002007,0.0000000,0.0000000,0.0000201,0.0000201,0.0000000,0.0000000,0.0000040,0.0000000,0.0000000,0.0000000,0.0000201,0.0000000,0.0000000,0.0000040,0.0000000,0.0000000,0.0000000,0.0000201,0.0000000,0.0000000,0.0000040
