t,predict_cpu,update_cpu,quat_x,quat_y,quat_z,quat_w,accel_x,accel_y,accel_z,of_x,of_y,of_z,x_x,x_y,x_z,x_vx,x_vy,x_vz,dt,P_0,P_1,P_2,P_3,P_4,P_5,P_6,P_7,P_8,P_9,P_10,P_11,P_12,P_13,P_14,P_15,P_16,P_17,P_18,P_19,P_20,P_21,P_22,P_23,P_24,P_25,P_26,P_27,P_28,P_29,P_30,P_31,P_32,P_33,P_34,P_35
89.5577260,1.0003500,,-0.9746934,-0.2235225,-0.0000365,0.0032282,-0.0041581,-0.0017013,-0.0003998,,,,0.9740785,-4.2225056,-11.5935087,0.0000000,0.0000000,0.0000000,0.0200070,0.0002031,0.0000000,0.0000000,0.0000203,0.0000000,0.0000000,0.0000000,0.0002031,0.0000000,0.0000000,0.0000203,0.0000000,0.0000000,0.0000000,0.0002031,0.0000000,0.0000000,0.0000203,0.0000203,0.0000000,0.0000000,0.0000040,0.0000000,0.0000000,0.0000000,0.0000203,0.0000000,0.0000000,0.0000040,0.0000000,0.0000000,0.0000000,0.0000203,0.0000000,0.0000000,0.0000040
89.5740040,,1.0200100,-0.9746934,-0.2235225,-0.0000365,0.0032282,,,,0.0000000,0.0000000,0.0000000,0.9740785,-4.2225056,-11.5935087,0.0000000,0.0000000,0.0000000,0.1020010,0.0001990,0.0000000,0.0000000,0.0000199,0.0000000,0.0000000,0.0000000,0.0001990,0.0000000,0.0000000,0.0000199,0.0000000,0.0000000,0.0000000,0.0001990,0.0000000,0.0000000,0.0000199,0.0000199,0.0000000,0.0000000,0.0000040,0.0000000,0.0000000,0.0000000,0.0000199,0.0000000,0.0000000,0.0000040,0.0000000,0.0000000,0.0000000,0.0000199,0.0000000,0.0000000,0.0000040
89.5886010,0.9997500,,-0.9746934,-0.2235225,-0.0000215,0.0032176,0.0040397,0.0022774,0.0007690,,,,0.9740785,-4.2225056,-11.5935087,0.0000000,0.0000000,0.0000000,0.0199950,0.0001998,0.0000000,0.0000000,0.0000200,0.0000000,0.0000000,0.0000000,0.0001998,0.0000000,0.0000000,0.0000200,0.0000000,0.0000000,0.0000000,0.0001998,0.0000000,0.0000000,0.0000200,0.0000200,0.0000000,0.0000000,0.0000040,0.0000000,0.0000000,0.0000000,0.0000200,0.0000000,0.0000000,0.0000040,0.0000000,0.0000000,0.0000000,0.0000200,0.0000000,0.0000000,0.0000040
89.6017720,1.1998500,,-0.9746935,-0.2235226,-0.0000453,0.0032006,0.0024624,-0.0021191,-0.0037735,,,,0.9740785,-4.2225056,-11.5935087,0.0000000,0.0000000,0.0000000,0.0239970,0.0002008,0.0000000,0.0000000,0.0000201,0.0000000,0.0000000,0.0000000,0.0002008,0.0000000,0.0000000,0.0000201,0.0000000,0.0000000,0.0000000,0.0002008,0.0000000,0.0000000,0.0000201,0.0000201,0.0000000,0.0000000,0.0000040,0.0000000,0.0000000,0.0000000,0.0000201,0.0000000,0.0000000,0.0000040,0.0000000,0.0000000,0.0000000,0.0000201,0.0000000,0.0000000,0.0000040
89.6217670,1.0000501,,-0.9746935,-0.2235228,-0.0000913,0.0031819,0.0077162,0.0000467,-0.0021385,,,,0.9740785,-4.2225056,-11.5935087,0.0000000,0.0000000,0.0000000,0.0200010,0.0002016,0.0000000,0.0000000,0.0000201,0.0000000,0.0000000,0.0000000,0.0002016,0.0000000,0.0000000,0.0000201,0.0000000,0.0000000,0.0000000,0.0002016,0.0000000,0.0000000,0.0000201,0.0000201,0.0000000,0.0000000,0.0000040,0.0000000,0.0000000,0.0000000,0.0000201,0.0000000,0.0000000,0.0000040,0.0000000,0.0000000,0.0000000,0.0000201,0.0000000,0.0000000,0.0000040
89.6430610,1.0006001,,-0.9746935,-0.2235228,-0.0001098,0.0031617,0.0013251,-0.0025554,-0.0020535,,,,0.9740785,-4.2225056,-11.5935087,0.0000000,0.0000000,0.0000000,0.0200120,0.0002024,0.0000000,0.0000000,0.0000202,0.0000000,0.0000000,0.0000000,0.0002024,0.0000000,0.0000000,0.0000202,0.0000000,0.0000000,0.0000000,0.0002024,0.0000000,0.0000000,0.0000202,0.0000202,0.0000000,0.0000000,0.0000040,0.0000000,0.0000000,0.0000000,0.0000202,0.0000000,0.0000000,0.0000040,0.0000000,0.0000000,0.0000000,0.0000202,0.0000000,0.0000000,0.0000040
89.6618510,0.9994000,,-0.9746935,-0.2235229,-0.0001347,0.0031574,0.0044467,-0.0018957,-0.0046965,,,,0.9740785,-4.2225056,-11.5935087,0.0000000,0.0000000,0.0000000,0.0199880,0.0002032,0.0000000,0.0000000,0.0000203,0.0000000,0.0000000,0.0000000,0.0002032,0.0000000,0.0000000,0.0000203,0.0000000,0.0000000,0.0000000,0.0002032,0.0000000,0.0000000,0.0000203,0.0000203,0.0000000,0.0000000,0.0000040,0.0000000,0.0000000,0.0000000,0.0000203,0.0000000,0.0000000,0.0000040,0.0000000,0.0000000,0.0000000,0.0000203,0.0000000,0.0000000,0.0000040
89.6776920,,1.0199499,-0.9746935,-0.2235229,-0.0001347,0.0031574,,,,0.0000000,0.0000000,0.0000000,0.9740785,-4.2225056,-11.5935087,0.0000000,0.0000000,0.0000000,0.1019950,0.0001992,0.0000000,0.0000000,0.0000199,0.0000000,0.0000000,0.0000000,0.0001992,0.0000000,0.0000000,0.0000199,0.0000000,0.0000000,0.0000000,0.0001992,0.0000000,0.0000000,0.0000199,0.0000199,0.0000000,0.0000000,0.0000040,0.0000000,0.0000000,0.0000000,0.0000199,0.0000000,0.0000000,0.0000040,0.0000000,0.0000000,0.0000000,0.0000199,0.0000000,0.0000000,0.0000040
89.6917310,1.0004500,,-0.9746935,-0.2235230,-0.0001625,0.0031698,0.0064577,-0.0010623,-0.0033324,,,,0.9740785,-4.2225056,-11.5935087,0.0000000,0.0000000,0.0000000,0.0200090,0.0002000,0.0000000,0.0000000,0.0000200,0.0000000,0.0000000,0.0000000,0.0002000,0.0000000,0.0000000,0.0000200,0.0000000,0.0000000,0.0000000,0.0002000,0.0000000,0.0000000,0.0000200,0.0000200,0.0000000,0.0000000,0.0000040,0.0000000,0.0000000,0.0000000,0.0000200,0.0000000,0.0000000,0.0000040,0.0000000,0.0000000,0.0000000,0.0000200,0.0000000,0.0000000,0.0000040
89.7046020,1.1494499,,-0.9746935,-0.2235231,-0.0001789,0.0031366,0.0045487,0.0048934,-0.0026504,,,,0.9740785,-4.2225056,-11.5935087,0.0000000,0.0000000,0.0000000,0.0229890,0.0002009,0.0000000,0.0000000,0.0000201,0.0000000,0.0000000,0.0000000,0.0002009,0.0000000,0.0000000,0.0000201,0.0000000,0.0000000,0.0000000,0.0002009,0.0000000,0.0000000,0.0000201,0.0000201,0.0000000,0.0000000,0.0000040,0.0000000,0.0000000,0.0000000,0.0000201,0.0000000,0.0000000,0.0000040,0.0000000,0.0000000,0.0000000,0.0000201,0.0000000,0.0000000,0.0000040
89.7271250,1.0505501,,-0.9746935,-0.2235231,-0.0001865,0.0031360,0.0006569,-0.0018639,0.0006203,,,,0.9740785,-4.2225056,-11.5935087,0.0000000,0.0000000,0.0000000,0.0210110,0.0002017,0.0000000,0.0000000,0.0000202,0.0000000,0.0000000,0.0000000,0.0002017,0.0000000,0.0000000,0.0000202,0.0000000,0.0000000,0.0000000,0.0002017,0.0000000,0.0000000,0.0000202,0.0000202,0.0000000,0.0000000,0.0000040,0.0000000,0.0000000,0.0000000,0.0000202,0.0000000,0.0000000,0.0000040,0.0000000,0.0000000,0.0000000,0.0000202,0.0000000,0.0000000,0.0000040
89.7457110,0.9994500,,-0.9746935,-0.2235231,-0.0001953,0.0031269,-0.0015407,-0.0033047,0.0020115,,,,0.9740785,-4.2225056,-11.5935087,0.0000000,0.0000000,0.0000000,0.0199890,0.0002025,0.0000000,0.0000000,0.0000202,0.0000000,0.0000000,0.0000000,0.0002025,0.0000000,0.0000000,0.0000202,0.0000000,0.0000000,0.0000000,0.0002025,0.0000000,0.0000000,0.0000202,0.0000202,0.0000000,0.0000000,0.0000040,0.0000000,0.0000000,0.0000000,0.0000202,0.0000000,0.0000000,0.0000040,0.0000000,0.0000000,0.0000000,0.0000202,0.0000000,0.0000000,0.0000040
89.7659710,1.0000000,,-0.9746936,-0.2235232,-0.0002066,0.0031158,-0.0011824,-0.0025755,-0.0024198,,,,0.9740785,-4.2225056,-11.5935087,0.0000000,0.0000000,0.0000000,0.0200000,0.0002033,0.0000000,0.0000000,0.0000203,0.0000000,0.0000000,0.0000000,0.0002033,0.0000000,0.0000000,0.0000203,0.0000000,0.0000000,0.0000000,0.0002033,0.0000000,0.0000000,0.0000203,0.0000203,0.0000000,0.0000000,0.0000040,0.0000000,0.0000000,0.0000000,0.0000203,0.0000000,0.0000000,0.0000040,0.0000000,0.0000000,0.0000000,0.0000203,0.0000000,0.0000000,0.0000040
89.7841520,,1.0000000,-0.9746936,-0.2235232,-0.0002066,0.0031300,,,,0.0000000,0.0000000,0.0000000,0.9740785,-4.2225056,-11.5935087,0.0000000,0.0000000,0.0000000,0.1000000,0.0001993,0.0000000,0.0000000,0.0000199,0.0000000,0.0000000,0.0000000,0.0001993,0.0000000,0.0000000,0.0000199,0.0000000,0.0000000,0.0000000,0.0001993,0.0000000,0.0000000,0.0000199,0.0000199,0.0000000,0.0000000,0.0000040,0.0000000,0.0000000,0.0000000,0.0000199,0.0000000,0.0000000,0.0000040,0.0000000,0.0000000,0.0000000,0.0000199,0.0000000,0.0000000,0.0000040
89.7977260,1.0006001,,-0.9746935,-0.2235232,-0.0002157,0.0031300,-0.0000419,-0.0065673,-0.0048797,,,,0.9740785,-4.2225056,-11.5935087,0.0000000,0.0000000,0.0000000,0.0200120,0.0002001,0.0000000,0.0000000,0.0000200,0.0000000,0.0000000,0.0000000,0.0002001,0.0000000,0.0000000,0.0000200,0.0000000,0.0000000,0.0000000,0.0002001,0.0000000,0.0000000,0.0000200,0.0000200,0.0000000,0.0000000,0.0000040,0.0000000,0.0000000,0.0000000,0.0000200,0.0000000,0.0000000,0.0000040,0.0000000,0.0000000,0.0000000,0.0000200,0.0000000,0.0000000,0.0000040
89.8106290,1.2494000,,-0.9746936,-0.2235233,-0.0002336,0.0031129,-0.0007076,-0.0020248,0.0002381,,,,0.9740785,-4.2225056,-11.5935087,0.0000000,0.0000000,0.0000000,0.0249880,0.0002011,0.0000000,0.0000000,0.0000201,0.0000000,0.0000000,0.0000000,0.0002011,0.0000000,0.0000000,0.0000201,0.0000000,0.0000000,0.0000000,0.0002011,0.0000000,0.0000000,0.0000201,0.0000201,0.0000000,0.0000000,0.0000040,0.0000000,0.0000000,0.0000000,0.0000201,0.0000000,0.0000000,0.0000040,0.0000000,0.0000000,0.0000000,0.0000201,0.0000000,0.0000000,0.0000040
89.8310230,1.0000000,,-0.9746936,-0.2235233,-0.0002353,0.0031089,0.0038500,0.0007424,-0.0025741,,,,0.9740785,-4.2225056,-11.5935087,0.0000000,0.0000000,0.0000000,0.0200000,0.0002019,0.0000000,0.0000000,0.0000202,0.0000000,0.0000000,0.0000000,0.0002019,0.0000000,0.0000000,0.0000202,0.0000000,0.0000000,0.0000000,0.0002019,0.0000000,0.0000000,0.0000202,0.0000202,0.0000000,0.0000000,0.0000040,0.0000000,0.0000000,0.0000000,0.0000202,0.0000000,0.0000000,0.0000040,0.0000000,0.0000000,0.0000000,0.0000202,0.0000000,0.0000000,0.0000040
89.8508010,1.0003999,,-0.9746936,-0.2235233,-0.0002341,0.0031068,0.0002771,0.0018818,-0.0025154,,,,0.9740785,-4.2225056,-11.5935087,0.0000000,0.0000000,0.0000000,0.0200080,0.0002027,0.0000000,0.0000000,0.0000202,0.0000000,0.0000000,0.0000000,0.0002027,0.0000000,0.0000000,0.0000202,0.0000000,0.0000000,0.0000000,0.0002027,0.0000000,0.0000000,0.0000202,0.0000202,0.0000000,0.0000000,0.0000040,0.0000000,0.0000000,0.0000000,0.0000202,0.0000000,0.0000000,0.0000040,0.0000000,0.0000000,0.0000000,0.0000202,0.0000000,0.0000000,0.0000040
89.8700310,,0.9999900,-0.9746935,-0.2235233,-0.0002459,0.0031279,,,,0.0000000,0.0000000,0.0000000,0.9740785,-4.2225056,-11.5935087,0.0000000,0.0000000,0.0000000,0.0999990,0.0001987,0.0000000,0.0000000,0.0000198,0.0000000,0.0000000,0.0000000,0.0001987,0.0000000,0.0000000,0.0000198,0.0000000,0.0000000,0.0000000,0.0001987,0.0000000,0.0000000,0.0000198,0.0000198,0.0000000,0.0000000,0.0000040,0.0000000,0.0000000,0.0000000,0.0000198,0.0000000,0.0000000,0.0000040,0.0000000,0.0000000,0.0000000,0.0000198,0.0000000,0.0000000,0.0000040
89.8835550,1.0003500,,-0.9746935,-0.2235233,-0.0002459,0.0031279,0.0052884,0.0024897,-0.0041950,,,,0.9740785,-4.2225056,-11.5935087,0.0000000,0.0000000,0.0000000,0.0200070,0.0001995,0.0000000,0.0000000,0.0000199,0.0000000,0.0000000,0.0000000,0.0001995,0.0000000,0.0000000,0.0000199,0.0000000,0.0000000,0.0000000,0.0001995,0.0000000,0.0000000,0.0000199,0.0000199,0.0000000,0.0000000,0.0000040,0.0000000,0.0000000,0.0000000,0.0000199,0.0000000,0.0000000,0.0000040,0.0000000,0.0000000,0.0000000,0.0000199,0.0000000,0.0000000,0.0000040
89.8968400,1.2993001,,-0.9746935,-0.2235233,-0.0002567,0.0031464,0.0048567,0.0023206,-0.0035700,,,,0.9740785,-4.2225056,-11.5935087,0.0000000,0.0000000,0.0000000,0.0259860,0.0002005,0.0000000,0.0000000,0.0000200,0.0000000,0.0000000,0.0000000,0.0002005,0.0000000,0.0000000,0.0000200,0.0000000,0.0000000,0.0000000,0.0002005,0.0000000,0.0000000,0.0000200,0.0000200,0.0000000,0.0000000,0.0000040,0.0000000,0.0000000,0.0000000,0.0000200,0.0000000,0.0000000,0.0000040,0.0000000,0.0000000,0.0000000,0.0000200,0.0000000,0.0000000,0.0000040
89.9167650,1.0002501,,-0.9746934,-0.2235233,-0.0002681,0.0031605,0.0029166,-0.0009302,-0.0025250,,,,0.9740785,-4.2225056,-11.5935087,0.0000000,0.0000000,0.0000000,0.0200050,0.0002013,0.0000000,0.0000000,0.0000201,0.0000000,0.0000000,0.0000000,0.0002013,0.0000000,0.0000000,0.0000201,0.0000000,0.0000000,0.0000000,0.0002013,0.0000000,0.0000000,0.0000201,0.0000201,0.0000000,0.0000000,0.0000040,0.0000000,0.0000000,0.0000000,0.0000201,0.0000000,0.0000000,0.0000040,0.0000000,0.0000000,0.0000000,0.0000201,0.0000000,0.0000000,0.0000040
89.9377880,1.0498000,,-0.9746934,-0.2235233,-0.0002493,0.0031639,0.0002834,-0.0025555,-0.0037116,,,,0.9740785,-4.2225056,-11.5935087,0.0000000,0.0000000,0.0000000,0.0209960,0.0002021,0.0000000,0.0000000,0.0000202,0.0000000,0.0000000,0.0000000,0.0002021,0.0000000,0.0000000,0.0000202,0.0000000,0.0000000,0.0000000,0.0002021,0.0000000,0.0000000,0.0000202,0.0000202,0.0000000,0.0000000,0.0000040,0.0000000,0.0000000,0.0000000,0.0000202,0.0000000,0.0000000,0.0000040,0.0000000,0.0000000,0.0000000,0.0000202,0.0000000,0.0000000,0.0000040
89.9586550,1.0500500,,-0.9746935,-0.2235233,-0.0002404,0.0031512,-0.0010256,0.0002710,-0.0040607,,,,0.9740785,-4.2225056,-11.5935087,0.0000000,0.0000000,0.0000000,0.0210010,0.0002030,0.0000000,0.0000000,0.0000203,0.0000000,0.0000000,0.0000000,0.0002030,0.0000000,0.0000000,0.0000203,0.0000000,0.0000000,0.0000000,0.0002030,0.0000000,0.0000000,0.0000203,0.0000203,0.0000000,0.0000000,0.0000040,0.0000000,0.0000000,0.0000000,0.0000203,0.0000000,0.0000000,0.0000040,0.0000000,0.0000000,0.0000000,0.0000203,0.0000000,0.0000000,0.0000040
89.9746620,,1.0201800,-0.9746935,-0.2235233,-0.0002404,0.0031512,,,,0.0000000,0.0000000,0.0000000,0.9740785,-4.2225056,-11.5935087,0.0000000,0.0000000,0.0000000,0.1020180,0.0001990,0.0000000,0.0000000,0.0000199,0.0000000,0.0000000,0.0000000,0.0001990,0.0000000,0.0000000,0.0000199,0.0000000,0.0000000,0.0000000,0.0001990,0.0000000,0.0000000,0.0000199,0.0000199,0.0000000,0.0000000,0.0000040,0.0000000,0.0000000,0.0000000,0.0000199,0.0000000,0.0000000,0.0000040,0.0000000,0.0000000,0.0000000,0.0000199,0.0000000,0.0000000,0.0000040
89.9879270,1.1003000,,-0.9746935,-0.2235233,-0.0002352,0.0031439,0.0012496,0.0053387,0.0016241,,,,0.9740785,-4.2225056,-11.5935087,0.0000000,0.0000000,0.0000000,0.0220060,0.0001998,0.0000000,0.0000000,0.0000200,0.0000000,0.0000000,0.0000000,0.0001998,0.0000000,0.0000000,0.0000200,0.0000000,0.0000000,0.0000000,0.0001998,0.0000000,0.0000000,0.0000200,0.0000200,0.0000000,0.0000000,0.0000040,0.0000000,0.0000000,0.0000000,0.0000200,0.0000000,0.0000000,0.0000040,0.0000000,0.0000000,0.0000000,0.0000200,0.0000000,0.0000000,0.0000040
90.0026080,1.0996000,,-0.9746935,-0.2235233,-0.0002429,0.0031336,-0.0020226,0.0034628,0.0064197,,,,0.9740785,-4.2225056,-11.5935087,0.0000000,0.0000000,0.0000000,0.0219920,0.0002007,0.0000000,0.0000000,0.0000201,0.0000000,0.0000000,0.0000000,0.0002007,0.0000000,0.0000000,0.0000201,0.0000000,0.0000000,0.0000000,0.0002007,0.0000000,0.0000000,0.0000201,0.0000201,0.0000000,0.0000000,0.0000040,0.0000000,0.0000000,0.0000000,0.0000201,0.0000000,0.0000000,0.0000040,0.0000000,0.0000000,0.0000000,0.0000201,0.0000000,0.0000000,0.0000040
90.0237600,1.0506001,,-0.9746936,-0.2235232,-0.0002191,0.0031143,-0.0079922,0.0071483,0.0032022,,,,0.9740785,-4.2225056,-11.5935087,0.0000000,0.0000000,0.0000000,0.0210120,0.0002015,0.0000000,0.0000000,0.0000201,0.0000000,0.0000000,0.0000000,0.0002015,0.0000000,0.0000000,0.0000201,0.0000000,0.0000000,0.0000000,0.0002015,0.0000000,0.0000000,0.0000201,0.0000201,0.0000000,0.0000000,0.0000040,0.0000000,0.0000000,0.0000000,0.0000201,0.0000000,0.0000000,0.0000040,0.0000000,0.0000000,0.0000000,0.0000201,0.0000000,0.0000000,0.0000040
90.0462080,1.0498501,,-0.9746935,-0.2235232,-0.0002119,0.0031329,-0.0053846,-0.0056040,-0.0023128,,,,0.9740785,-4.2225056,-11.5935087,0.0000000,0.0000000,0.0000000,0.0209970,0.0002024,0.0000000,0.0000000,0.0000202,0.0000000,0.0000000,0.0000000,0.0002024,0.0000000,0.0000000,0.0000202,0.0000000,0.0000000,0.0000000,0.0002024,0.0000000,0.0000000,0.0000202,0.0000202,0.0000000,0.0000000,0.0000040,0.0000000,0.0000000,0.0000000,0.0000202,0.0000000,0.0000000,0.0000040,0.0000000,0.0000000,0.0000000,0.0000202,0.0000000,0.0000000,0.0000040
90.0647840,0.9999000,,-0.9746935,-0.2235232,-0.0002253,0.0031419,-0.0026465,-0.0046636,-0.0065351,,,,0.9740785,-4.2225056,-11.5935087,0.0000000,0.0000000,0.0000000,0.0199980,0.0002032,0.0000000,0.0000000,0.0000203,0.0000000,0.0000000,0.0000000,0.0002032,0.0000000,0.0000000,0.0000203,0.0000000,0.0000000,0.0000000,0.0002032,0.0000000,0.0000000,0.0000203,0.0000203,0.0000000,0.0000000,0.0000040,0.0000000,0.0000000,0.0000000,0.0000203,0.0000000,0.0000000,0.0000040,0.0000000,0.0000000,0.0000000,0.0000203,0.0000000,0.0000000,0.0000040
90.0805080,,1.0198400,-0.9746935,-0.2235232,-0.0002253,0.0031419,,,,0.0000000,0.0000000,0.0000000,0.9740785,-4.2225056,-11.5935087,0.0000000,0.0000000,0.0000000,0.1019840,0.0001992,0.0000000,0.0000000,0.0000199,0.0000000,0.0000000,0.0000000,0.0001992,0.0000000,0.0000000,0.0000199,0.0000000,0.0000000,0.0000000,0.0001992,0.0000000,0.0000000,0.0000199,0.0000199,0.0000000,0.0000000,0.0000040,0.0000000,0.0000000,0.0000000,0.0000199,0.0000000,0.0000000,0.0000040,0.0000000,0.0000000,0.0000000,0.0000199,0.0000000,0.0000000,0.0000040
90.0942860,0.9997000,,-0.9746935,-0.2235232,-0.0002152,0.0031362,-0.0066104,-0.0056735,-0.0062049,,,,0.9740785,-4.2225056,-11.5935087,0.0000000,0.0000000,0.0000000,0.0199940,0.0002000,0.0000000,0.0000000,0.0000200,0.0000000,0.0000000,0.0000000,0.0002000,0.0000000,0.0000000,0.0000200,0.0000000,0.0000000,0.0000000,0.0002000,0.0000000,0.0000000,0.0000200,0.0000200,0.0000000,0.0000000,0.0000040,0.0000000,0.0000000,0.0000000,0.0000200,0.0000000,0.0000000,0.0000040,0.0000000,0.0000000,0.0000000,0.0000200,0.0000000,0.0000000,0.0000040
90.1074910,1.1499000,,-0.9746937,-0.2235232,-0.0001956,0.0030956,-0.0085466,0.0003524,0.0047024,,,,0.9740785,-4.2225056,-11.5935087,0.0000000,0.0000000,0.0000000,0.0229980,0.0002009,0.0000000,0.0000000,0.0000201,0.0000000,0.0000000,0.0000000,0.0002009,0.0000000,0.0000000,0.0000201,0.0000000,0.0000000,0.0000000,0.0002009,0.0000000,0.0000000,0.0000201,0.0000201,0.0000000,0.0000000,0.0000040,0.0000000,0.0000000,0.0000000,0.0000201,0.0000000,0.0000000,0.0000040,0.0000000,0.0000000,0.0000000,0.0000201,0.0000000,0.0000000,0.0000040
90.1286030,1.0502001,,-0.9746938,-0.2235232,-0.0001832,0.0030723,0.0004951,0.0040901,0.0001463,,,,0.9740785,-4.2225056,-11.5935087,0.0000000,0.0000000,0.0000000,0.0210040,0.0002017,0.0000000,0.0000000,0.0000202,0.0000000,0.0000000,0.0000000,0.0002017,0.0000000,0.0000000,0.0000202,0.0000000,0.0000000,0.0000000,0.0002017,0.0000000,0.0000000,0.0000202,0.0000202,0.0000000,0.0000000,0.0000040,0.0000000,0.0000000,0.0000000,0.0000202,0.0000000,0.0000000,0.0000040,0.0000000,0.0000000,0.0000000,0.0000202,0.0000000,0.0000000,0.0000040
90.1500370,1.0502001,,-0.9746938,-0.2235231,-0.0001486,0.0030541,-0.0139660,0.0008320,0.0044601,,,,0.9740785,-4.2225056,-11.5935087,0.0000000,0.0000000,0.0000000,0.0210040,0.0002026,0.0000000,0.0000000,0.0000202,0.0000000,0.0000000,0.0000000,0.0002026,0.0000000,0.0000000,0.0000202,0.0000000,0.0000000,0.0000000,0.0002026,0.0000000,0.0000000,0.0000202,0.0000202,0.0000000,0.0000000,0.0000040,0.0000000,0.0000000,0.0000000,0.0000202,0.0000000,0.0000000,0.0000040,0.0000000,0.0000000,0.0000000,0.0000202,0.0000000,0.0000000,0.0000040
90.1697350,1.0001000,,-0.9746938,-0.2235231,-0.0001354,0.0030659,-0.0092489,0.0007059,0.0058845,,,,0.9740785,-4.2225056,-11.5935087,0.0000000,0.0000000,0.0000000,0.0200020,0.0002034,0.0000000,0.0000000,0.0000203,0.0000000,0.0000000,0.0000000,0.0002034,0.0000000,0.0000000,0.0000203,0.0000000,0.0000000,0.0000000,0.0002034,0.0000000,0.0000000,0.0000203,0.0000203,0.0000000,0.0000000,0.0000040,0.0000000,0.0000000,0.0000000,0.0000203,0.0000000,0.0000000,0.0000040,0.0000000,0.0000000,0.0000000,0.0000203,0.0000000,0.0000000,0.0000040
90.1855080,,1.0000000,-0.9746938,-0.2235231,-0.0001354,0.0030659,,,,0.0000000,0.0000000,0.0000000,0.9740785,-4.2225056,-11.5935087,0.0000000,0.0000000,0.0000000,0.1000000,0.0001993,0.0000000,0.0000000,0.0000199,0.0000000,0.0000000,0.0000000,0.0001993,0.0000000,0.0000000,0.0000199,0.0000000,0.0000000,0.0000000,0.0001993,0.0000000,0.0000000,0.0000199,0.0000199,0.0000000,0.0000000,0.0000040,0.0000000,0.0000000,0.0000000,0.0000199,0.0000000,0.0000000,0.0000040,0.0000000,0.0000000,0.0000000,0.0000199,0.0000000,0.0000000,0.0000040
90.1992020,0.9999500,,-0.9746938,-0.2235230,-0.0001050,0.0030727,-0.0070888,0.0026112,0.0048878,,,,0.9740785,-4.2225056,-11.5935087,0.0000000,0.0000000,0.0000000,0.0199990,0.0002001,0.0000000,0.0000000,0.0000200,0.0000000,0.0000000,0.0000000,0.0002001,0.0000000,0.0000000,0.0000200,0.0000000,0.0000000,0.0000000,0.0002001,0.0000000,0.0000000,0.0000200,0.0000200,0.0000000,0.0000000,0.0000040,0.0000000,0.0000000,0.0000000,0.0000200,0.0000000,0.0000000,0.0000040,0.0000000,0.0000000,0.0000000,0.0000200,0.0000000,0.0000000,0.0000040
90.2124390,1.1496000,,-0.9746940,-0.2235229,-0.0000759,0.0030294,-0.0059629,0.0017710,0.0034128,,,,0.9740785,-4.2225056,-11.5935087,0.0000000,0.0000000,0.0000000,0.0229920,0.0002010,0.0000000,0.0000000,0.0000201,0.0000000,0.0000000,0.0000000,0.0002010,0.0000000,0.0000000,0.0000201,0.0000000,0.0000000,0.0000000,0.0002010,0.0000000,0.0000000,0.0000201,0.0000201,0.0000000,0.0000000,0.0000040,0.0000000,0.0000000,0.0000000,0.0000201,0.0000000,0.0000000,0.0000040,0.0000000,0.0000000,0.0000000,0.0000201,0.0000000,0.0000000,0.0000040
90.2336180,1.0501500,,-0.9746940,-0.2235228,-0.0000508,0.0030126,-0.0056289,0.0001378,0.0024312,,,,0.9740785,-4.2225056,-11.5935087,0.0000000,0.0000000,0.0000000,0.0210030,0.0002019,0.0000000,0.0000000,0.0000202,0.0000000,0.0000000,0.0000000,0.0002019,0.0000000,0.0000000,0.0000202,0.0000000,0.0000000,0.0000000,0.0002019,0.0000000,0.0000000,0.0000202,0.0000202,0.0000000,0.0000000,0.0000040,0.0000000,0.0000000,0.0000000,0.0000202,0.0000000,0.0000000,0.0000040,0.0000000,0.0000000,0.0000000,0.0000202,0.0000000,0.0000000,0.0000040
90.2561900,1.0502001,,-0.9746940,-0.2235228,-0.0000378,0.0030136,-0.0057060,-0.0006559,0.0002314,,,,0.9740785,-4.2225056,-11.5935087,0.0000000,0.0000000,0.0000000,0.0210040,0.0002027,0.0000000,0.0000000,0.0000203,0.0000000,0.0000000,0.0000000,0.0002027,0.0000000,0.0000000,0.0000203,0.0000000,0.0000000,0.0000000,0.0002027,0.0000000,0.0000000,0.0000203,0.0000203,0.0000000,0.0000000,0.0000040,0.0000000,0.0000000,0.0000000,0.0000203,0.0000000,0.0000000,0.0000040,0.0000000,0.0000000,0.0000000,0.0000203,0.0000000,0.0000000,0.0000040
90.2760590,,1.0099900,-0.9746940,-0.2235228,-0.0000335,0.0030282,,,,0.0000000,0.0000000,0.0000000,0.9740785,-4.2225056,-11.5935087,0.0000000,0.0000000,0.0000000,0.1009990,0.0001987,0.0000000,0.0000000,0.0000198,0.0000000,0.0000000,0.0000000,0.0001987,0.0000000,0.0000000,0.0000198,0.0000000,0.0000000,0.0000000,0.0001987,0.0000000,0.0000000,0.0000198,0.0000198,0.0000000,0.0000000,0.0000040,0.0000000,0.0000000,0.0000000,0.0000198,0.0000000,0.0000000,0.0000040,0.0000000,0.0000000,0.0000000,0.0000198,0.0000000,0.0000000,0.0000040
90.2883730,1.0001000,,-0.9746940,-0.2235228,-0.0000335,0.0030282,-0.0018459,-0.0039595,-0.0040423,,,,0.9740785,-4.2225056,-11.5935087,0.0000000,0.0000000,0.0000000,0.0200020,0.0001995,0.0000000,0.0000000,0.0000199,0.0000000,0.0000000,0.0000000,0.0001995,0.0000000,0.0000000,0.0000199,0.0000000,0.0000000,0.0000000,0.0001995,0.0000000,0.0000000,0.0000199,0.0000199,0.0000000,0.0000000,0.0000040,0.0000000,0.0000000,0.0000000,0.0000199,0.0000000,0.0000000,0.0000040,0.0000000,0.0000000,0.0000000,0.0000199,0.0000000,0.0000000,0.0000040
90.3019350,1.3495500,,-0.9746939,-0.2235228,-0.0000365,0.0030543,0.0059206,-0.0014228,-0.0034936,,,,0.9740785,-4.2225056,-11.5935087,0.0000000,0.0000000,0.0000000,0.0269910,0.0002006,0.0000000,0.0000000,0.0000200,0.0000000,0.0000000,0.0000000,0.0002006,0.0000000,0.0000000,0.0000200,0.0000000,0.0000000,0.0000000,0.0002006,0.0000000,0.0000000,0.0000200,0.0000200,0.0000000,0.0000000,0.0000040,0.0000000,0.0000000,0.0000000,0.0000200,0.0000000,0.0000000,0.0000040,0.0000000,0.0000000,0.0000000,0.0000200,0.0000000,0.0000000,0.0000040
90.3217530,1.0000501,,-0.9746939,-0.2235228,-0.0000315,0.0030545,0.0010377,0.0015316,-0.0000455,,,,0.9740785,-4.2225056,-11.5935087,0.0000000,0.0000000,0.0000000,0.0200010,0.0002014,0.0000000,0.0000000,0.0000201,0.0000000,0.0000000,0.0000000,0.0002014,0.0000000,0.0000000,0.0000201,0.0000000,0.0000000,0.0000000,0.0002014,0.0000000,0.0000000,0.0000201,0.0000201,0.0000000,0.0000000,0.0000040,0.0000000,0.0000000,0.0000000,0.0000201,0.0000000,0.0000000,0.0000040,0.0000000,0.0000000,0.0000000,0.0000201,0.0000000,0.0000000,0.0000040
90.3418110,1.0004500,,-0.9746939,-0.2235227,-0.0000152,0.0030679,-0.0040740,-0.0011110,-0.0039366,,,,0.9740785,-4.2225056,-11.5935087,0.0000000,0.0000000,0.0000000,0.0200090,0.0002022,0.0000000,0.0000000,0.0000202,0.0000000,0.0000000,0.0000000,0.0002022,0.0000000,0.0000000,0.0000202,0.0000000,0.0000000,0.0000000,0.0002022,0.0000000,0.0000000,0.0000202,0.0000202,0.0000000,0.0000000,0.0000040,0.0000000,0.0000000,0.0000000,0.0000202,0.0000000,0.0000000,0.0000040,0.0000000,0.0000000,0.0000000,0.0000202,0.0000000,0.0000000,0.0000040
90.3617520,0.9997500,,-0.9746939,-0.2235227,-0.0000086,0.0030633,-0.0034485,-0.0061173,-0.0024642,,,,0.9740785,-4.2225056,-11.5935087,0.0000000,0.0000000,0.0000000,0.0199950,0.0002030,0.0000000,0.0000000,0.0000203,0.0000000,0.0000000,0.0000000,0.0002030,0.0000000,0.0000000,0.0000203,0.0000000,0.0000000,0.0000000,0.0002030,0.0000000,0.0000000,0.0000203,0.0000203,0.0000000,0.0000000,0.0000040,0.0000000,0.0000000,0.0000000,0.0000203,0.0000000,0.0000000,0.0000040,0.0000000,0.0000000,0.0000000,0.0000203,0.0000000,0.0000000,0.0000040
90.3790670,,1.0000401,-0.9746939,-0.2235227,-0.0000086,0.0030633,,,,0.0000000,0.0000000,0.0000000,0.9740785,-4.2225056,-11.5935087,0.0000000,0.0000000,0.0000000,0.1000040,0.0001989,0.0000000,0.0000000,0.0000199,0.0000000,0.0000000,0.0000000,0.0001989,0.0000000,0.0000000,0.0000199,0.0000000,0.0000000,0.0000000,0.0001989,0.0000000,0.0000000,0.0000199,0.0000199,0.0000000,0.0000000,0.0000040,0.0000000,0.0000000,0.0000000,0.0000199,0.0000000,0.0000000,0.0000040,0.0000000,0.0000000,0.0000000,0.0000199,0.0000000,0.0000000,0.0000040
90.3927370,1.0998499,,-0.9746940,-0.2235228,-0.0000167,0.0030266,0.0024719,0.0052269,-0.0002632,,,,0.9740785,-4.2225056,-11.5935087,0.0000000,0.0000000,0.0000000,0.0219970,0.0001998,0.0000000,0.0000000,0.0000200,0.0000000,0.0000000,0.0000000,0.0001998,0.0000000,0.0000000,0.0000200,0.0000000,0.0000000,0.0000000,0.0001998,0.0000000,0.0000000,0.0000200,0.0000200,0.0000000,0.0000000,0.0000040,0.0000000,0.0000000,0.0000000,0.0000200,0.0000000,0.0000000,0.0000040,0.0000000,0.0000000,0.0000000,0.0000200,0.0000000,0.0000000,0.0000040
90.4056250,1.0998001,,-0.9746940,-0.2235228,-0.0000192,0.0030393,-0.0006866,-0.0029560,0.0037670,,,,0.9740785,-4.2225056,-11.5935087,0.0000000,0.0000000,0.0000000,0.0219960,0.0002007,0.0000000,0.0000000,0.0000200,0.0000000,0.0000000,0.0000000,0.0002007,0.0000000,0.0000000,0.0000200,0.0000000,0.0000000,0.0000000,0.0002007,0.0000000,0.0000000,0.0000200,0.0000200,0.0000000,0.0000000,0.0000040,0.0000000,0.0000000,0.0000000,0.0000200,0.0000000,0.0000000,0.0000040,0.0000000,0.0000000,0.0000000,0.0000200,0.0000000,0.0000000,0.0000040
90.4272130,1.0001000,,-0.9746940,-0.2235227,-0.0000086,0.0030407,0.0002060,-0.0046137,-0.0017862,,,,0.9740785,-4.2225056,-11.5935087,0.0000000,0.0000000,0.0000000,0.0200020,0.0002015,0.0000000,0.0000000,0.0000201,0.0000000,0.0000000,0.0000000,0.0002015,0.0000000,0.0000000,0.0000201,0.0000000,0.0000000,0.0000000,0.0002015,0.0000000,0.0000000,0.0000201,0.0000201,0.0000000,0.0000000,0.0000040,0.0000000,0.0000000,0.0000000,0.0000201,0.0000000,0.0000000,0.0000040,0.0000000,0.0000000,0.0000000,0.0000201,0.0000000,0.0000000,0.0000040
90.4471090,1.0000000,,-0.9746940,-0.2235227,-0.0000061,0.0030456,0.0033302,-0.0007962,-0.0021214,,,,0.9740785,-4.2225056,-11.5935087,0.0000000,0.0000000,0.0000000,0.0200000,0.0002023,0.0000000,0.0000000,0.0000202,0.0000000,0.0000000,0.0000000,0.0002023,0.0000000,0.0000000,0.0000202,0.0000000,0.0000000,0.0000000,0.0002023,0.0000000,0.0000000,0.0000202,0.0000202,0.0000000,0.0000000,0.0000040,0.0000000,0.0000000,0.0000000,0.0000202,0.0000000,0.0000000,0.0000040,0.0000000,0.0000000,0.0000000,0.0000202,0.0000000,0.0000000,0.0000040
90.4658600,1.0002999,,-0.9746939,-0.2235227,-0.0000091,0.0030609,0.0021915,-0.0003294,-0.0025332,,,,0.9740785,-4.2225056,-11.5935087,0.0000000,0.0000000,0.0000000,0.0200060,0.0002031,0.0000000,0.0000000,0.0000203,0.0000000,0.0000000,0.0000000,0.0002031,0.0000000,0.0000000,0.0000203,0.0000000,0.0000000,0.0000000,0.0002031,0.0000000,0.0000000,0.0000203,0.0000203,0.0000000,0.0000000,0.0000040,0.0000000,0.0000000,0.0000000,0.0000203,0.0000000,0.0000000,0.0000040,0.0000000,0.0000000,0.0000000,0.0000203,0.0000000,0.0000000,0.0000040
90.4805620,,1.0200800,-0.9746939,-0.2235227,-0.0000091,0.0030609,,,,0.0000000,0.0000000,0.0000000,0.9740785,-4.2225056,-11.5935087,0.0000000,0.0000000,0.0000000,0.1020080,0.0001991,0.0000000,0.0000000,0.0000199,0.0000000,0.0000000,0.0000000,0.0001991,0.0000000,0.0000000,0.0000199,0.0000000,0.0000000,0.0000000,0.0001991,0.0000000,0.0000000,0.0000199,0.0000199,0.0000000,0.0000000,0.0000040,0.0000000,0.0000000,0.0000000,0.0000199,0.0000000,0.0000000,0.0000040,0.0000000,0.0000000,0.0000000,0.0000199,0.0000000,0.0000000,0.0000040
90.4942920,0.9998000,,-0.9746939,-0.2235228,-0.0000278,0.0030461,0.0047731,0.0022919,-0.0115281,,,,0.9740785,-4.2225056,-11.5935087,0.0000000,0.0000000,0.0000000,0.0199960,0.0001999,0.0000000,0.0000000,0.0000200,0.0000000,0.0000000,0.0000000,0.0001999,0.0000000,0.0000000,0.0000200,0.0000000,0.0000000,0.0000000,0.0001999,0.0000000,0.0000000,0.0000200,0.0000200,0.0000000,0.0000000,0.0000040,0.0000000,0.0000000,0.0000000,0.0000200,0.0000000,0.0000000,0.0000040,0.0000000,0.0000000,0.0000000,0.0000200,0.0000000,0.0000000,0.0000040
90.5076800,1.0999500,,-0.9746939,-0.2235228,-0.0000343,0.0030408,0.0026460,-0.0015167,-0.0001565,,,,0.9740785,-4.2225056,-11.5935087,0.0000000,0.0000000,0.0000000,0.0219990,0.0002007,0.0000000,0.0000000,0.0000201,0.0000000,0.0000000,0.0000000,0.0002007,0.0000000,0.0000000,0.0000201,0.0000000,0.0000000,0.0000000,0.0002007,0.0000000,0.0000000,0.0000201,0.0000201,0.0000000,0.0000000,0.0000040,0.0000000,0.0000000,0.0000000,0.0000201,0.0000000,0.0000000,0.0000040,0.0000000,0.0000000,0.0000000,0.0000201,0.0000000,0.0000000,0.0000040
90.5277470,1.0000000,,-0.9746938,-0.2235228,-0.0000168,0.0030717,0.0028336,-0.0060303,-0.0054570,,,,0.9740785,-4.2225056,-11.5935087,0.0000000,0.0000000,0.0000000,0.0200000,0.0002015,0.0000000,0.0000000,0.0000201,0.0000000,0.0000000,0.0000000,0.0002015,0.0000000,0.0000000,0.0000201,0.0000000,0.0000000,0.0000000,0.0002015,0.0000000,0.0000000,0.0000201,0.0000201,0.0000000,0.0000000,0.0000040,0.0000000,0.0000000,0.0000000,0.0000201,0.0000000,0.0000000,0.0000040,0.0000000,0.0000000,0.0000000,0.0000201,0.0000000,0.0000000,0.0000040
90.5487530,1.0500500,,-0.9746938,-0.2235226,0.0000255,0.0030958,-0.0036033,-0.0060593,0.0009260,,,,0.9740785,-4.2225056,-11.5935087,0.0000000,0.0000000,0.0000000,0.0210010,0.0002024,0.0000000,0.0000000,0.0000202,0.0000000,0.0000000,0.0000000,0.0002024,0.0000000,0.0000000,0.0000202,0.0000000,0.0000000,0.0000000,0.0002024,0.0000000,0.0000000,0.0000202,0.0000202,0.0000000,0.0000000,0.0000040,0.0000000,0.0000000,0.0000000,0.0000202,0.0000000,0.0000000,0.0000040,0.0000000,0.0000000,0.0000000,0.0000202,0.0000000,0.0000000,0.0000040
90.5701110,1.0001000,,-0.9746938,-0.2235225,0.0000652,0.0031053,-0.0089809,-0.0021599,0.0016761,,,,0.9740785,-4.2225056,-11.5935087,0.0000000,0.0000000,0.0000000,0.0200020,0.0002032,0.0000000,0.0000000,0.0000203,0.0000000,0.0000000,0.0000000,0.0002032,0.0000000,0.0000000,0.0000203,0.0000000,0.0000000,0.0000000,0.0002032,0.0000000,0.0000000,0.0000203,0.0000203,0.0000000,0.0000000,0.0000040,0.0000000,0.0000000,0.0000000,0.0000203,0.0000000,0.0000000,0.0000040,0.0000000,0.0000000,0.0000000,0.0000203,0.0000000,0.0000000,0.0000040
90.5855240,,1.0199599,-0.9746938,-0.2235225,0.0000652,0.0031049,,,,0.0000000,0.0000000,0.0000000,0.9740785,-4.2225056,-11.5935087,0.0000000,0.0000000,0.0000000,0.1019960,0.0001991,0.0000000,0.0000000,0.0000199,0.0000000,0.0000000,0.0000000,0.0001991,0.0000000,0.0000000,0.0000199,0.0000000,0.0000000,0.0000000,0.0001991,0.0000000,0.0000000,0.0000199,0.0000199,0.0000000,0.0000000,0.0000040,0.0000000,0.0000000,0.0000000,0.0000199,0.0000000,0.0000000,0.0000040,0.0000000,0.0000000,0.0000000,0.0000199,0.0000000,0.0000000,0.0000040
90.5991840,1.0002000,,-0.9746938,-0.2235225,0.0000761,0.0031049,0.0019869,0.0002628,0.0044925,,,,0.9740785,-4.2225056,-11.5935087,0.0000000,0.0000000,0.0000000,0.0200040,0.0001999,0.0000000,0.0000000,0.0000200,0.0000000,0.0000000,0.0000000,0.0001999,0.0000000,0.0000000,0.0000200,0.0000000,0.0000000,0.0000000,0.0001999,0.0000000,0.0000000,0.0000200,0.0000200,0.0000000,0.0000000,0.0000040,0.0000000,0.0000000,0.0000000,0.0000200,0.0000000,0.0000000,0.0000040,0.0000000,0.0000000,0.0000000,0.0000200,0.0000000,0.0000000,0.0000040
90.6126110,1.1995500,,-0.9746939,-0.2235224,0.0001018,0.0030789,-0.0005401,-0.0000364,0.0046800,,,,0.9740785,-4.2225056,-11.5935087,0.0000000,0.0000000,0.0000000,0.0239910,0.0002009,0.0000000,0.0000000,0.0000201,0.0000000,0.0000000,0.0000000,0.0002009,0.0000000,0.0000000,0.0000201,0.0000000,0.0000000,0.0000000,0.0002009,0.0000000,0.0000000,0.0000201,0.0000201,0.0000000,0.0000000,0.0000040,0.0000000,0.0000000,0.0000000,0.0000201,0.0000000,0.0000000,0.0000040,0.0000000,0.0000000,0.0000000,0.0000201,0.0000000,0.0000000,0.0000040
90.6327950,1.0001000,,-0.9746939,-0.2235223,0.0001350,0.0030761,-0.0017654,-0.0023528,0.0035531,,,,0.9740785,-4.2225056,-11.5935087,0.0000000,0.0000000,0.0000000,0.0200020,0.0002017,0.0000000,0.0000000,0.0000201,0.0000000,0.0000000,0.0000000,0.0002017,0.0000000,0.0000000,0.0000201,0.0000000,0.0000000,0.0000000,0.0002017,0.0000000,0.0000000,0.0000201,0.0000201,0.0000000,0.0000000,0.0000040,0.0000000,0.0000000,0.0000000,0.0000201,0.0000000,0.0000000,0.0000040,0.0000000,0.0000000,0.0000000,0.0000201,0.0000000,0.0000000,0.0000040
90.6537940,1.0500500,,-0.9746939,-0.2235223,0.0001431,0.0030850,-0.0024009,-0.0059371,0.0025013,,,,0.9740785,-4.2225056,-11.5935087,0.0000000,0.0000000,0.0000000,0.0210010,0.0002026,0.0000000,0.0000000,0.0000202,0.0000000,0.0000000,0.0000000,0.0002026,0.0000000,0.0000000,0.0000202,0.0000000,0.0000000,0.0000000,0.0002026,0.0000000,0.0000000,0.0000202,0.0000202,0.0000000,0.0000000,0.0000040,0.0000000,0.0000000,0.0000000,0.0000202,0.0000000,0.0000000,0.0000040,0.0000000,0.0000000,0.0000000,0.0000202,0.0000000,0.0000000,0.0000040
90.6740390,1.0001501,,-0.9746939,-0.2235222,0.0001541,0.0030926,-0.0044124,-0.0050361,-0.0016866,,,,0.9740785,-4.2225056,-11.5935087,0.0000000,0.0000000,0.0000000,0.0200030,0.0002034,0.0000000,0.0000000,0.0000203,0.0000000,0.0000000,0.0000000,0.0002034,0.0000000,0.0000000,0.0000203,0.0000000,0.0000000,0.0000000,0.0002034,0.0000000,0.0000000,0.0000203,0.0000203,0.0000000,0.0000000,0.0000040,0.0000000,0.0000000,0.0000000,0.0000203,0.0000000,0.0000000,0.0000040,0.0000000,0.0000000,0.0000000,0.0000203,0.0000000,0.0000000,0.0000040
90.6905450,,1.0000100,-0.9746939,-0.2235222,0.0001541,0.0030926,,,,0.0000000,0.0000000,0.0000000,0.9740785,-4.2225056,-11.5935087,0.0000000,0.0000000,0.0000000,0.1000010,0.0001993,0.0000000,0.0000000,0.0000199,0.0000000,0.0000000,0.0000000,0.0001993,0.0000000,0.0000000,0.0000199,0.0000000,0.0000000,0.0000000,0.0001993,0.0000000,0.0000000,0.0000199,0.0000199,0.0000000,0.0000000,0.0000040,0.0000000,0.0000000,0.0000000,0.0000199,0.0000000,0.0000000,0.0000040,0.0000000,0.0000000,0.0000000,0.0000199,0.0000000,0.0000000,0.0000040
90.7042640,1.0001501,,-0.9746939,-0.2235222,0.0001555,0.0030898,0.0031191,-0.0002064,-0.0013392,,,,0.9740785,-4.2225056,-11.5935087,0.0000000,0.0000000,0.0000000,0.0200030,0.0002001,0.0000000,0.0000000,0.0000200,0.0000000,0.0000000,0.0000000,0.0002001,0.0000000,0.0000000,0.0000200,0.0000000,0.0000000,0.0000000,0.0002001,0.0000000,0.0000000,0.0000200,0.0000200,0.0000000,0.0000000,0.0000040,0.0000000,0.0000000,0.0000000,0.0000200,0.0000000,0.0000000,0.0000040,0.0000000,0.0000000,0.0000000,0.0000200,0.0000000,0.0000000,0.0000040
90.7176830,1.1996000,,-0.9746939,-0.2235222,0.0001655,0.0030916,-0.0004241,-0.0043680,-0.0031187,,,,0.9740785,-4.2225056,-11.5935087,0.0000000,0.0000000,0.0000000,0.0239920,0.0002011,0.0000000,0.0000000,0.0000201,0.0000000,0.0000000,0.0000000,0.0002011,0.0000000,0.0000000,0.0000201,0.0000000,0.0000000,0.0000000,0.0002011,0.0000000,0.0000000,0.0000201,0.0000201,0.0000000,0.0000000,0.0000040,0.0000000,0.0000000,0.0000000,0.0000201,0.0000000,0.0000000,0.0000040,0.0000000,0.0000000,0.0000000,0.0000201,0.0000000,0.0000000,0.0000040
90.7377580,1.0000501,,-0.9746939,-0.2235222,0.0001801,0.0030883,0.0017334,0.0023326,-0.0040084,,,,0.9740785,-4.2225056,-11.5935087,0.0000000,0.0000000,0.0000000,0.0200010,0.0002019,0.0000000,0.0000000,0.0000202,0.0000000,0.0000000,0.0000000,0.0002019,0.0000000,0.0000000,0.0000202,0.0000000,0.0000000,0.0000000,0.0002019,0.0000000,0.0000000,0.0000202,0.0000202,0.0000000,0.0000000,0.0000040,0.0000000,0.0000000,0.0000000,0.0000202,0.0000000,0.0000000,0.0000040,0.0000000,0.0000000,0.0000000,0.0000202,0.0000000,0.0000000,0.0000040
90.7602710,1.0505501,,-0.9746940,-0.2235221,0.0001966,0.0030621,-0.0020401,-0.0002146,-0.0010352,,,,0.9740785,-4.2225056,-11.5935087,0.0000000,0.0000000,0.0000000,0.0210110,0.0002027,0.0000000,0.0000000,0.0000203,0.0000000,0.0000000,0.0000000,0.0002027,0.0000000,0.0000000,0.0000203,0.0000000,0.0000000,0.0000000,0.0002027,0.0000000,0.0000000,0.0000203,0.0000203,0.0000000,0.0000000,0.0000040,0.0000000,0.0000000,0.0000000,0.0000203,0.0000000,0.0000000,0.0000040,0.0000000,0.0000000,0.0000000,0.0000203,0.0000000,0.0000000,0.0000040
90.7799340,,1.0099000,-0.9746940,-0.2235221,0.0002147,0.0030639,,,,0.0000000,0.0000000,0.0000000,0.9740785,-4.2225056,-11.5935087,0.0000000,0.0000000,0.0000000,0.1009900,0.0001987,0.0000000,0.0000000,0.0000198,0.0000000,0.0000000,0.0000000,0.0001987,0.0000000,0.0000000,0.0000198,0.0000000,0.0000000,0.0000000,0.0001987,0.0000000,0.0000000,0.0000198,0.0000198,0.0000000,0.0000000,0.0000040,0.0000000,0.0000000,0.0000000,0.0000198,0.0000000,0.0000000,0.0000040,0.0000000,0.0000000,0.0000000,0.0000198,0.0000000,0.0000000,0.0000040
90.7935090,1.0002000,,-0.9746940,-0.2235221,0.0002147,0.0030639,-0.0068489,-0.0019460,-0.0007694,,,,0.9740785,-4.2225056,-11.5935087,0.0000000,0.0000000,0.0000000,0.0200040,0.0001995,0.0000000,0.0000000,0.0000199,0.0000000,0.0000000,0.0000000,0.0001995,0.0000000,0.0000000,0.0000199,0.0000000,0.0000000,0.0000000,0.0001995,0.0000000,0.0000000,0.0000199,0.0000199,0.0000000,0.0000000,0.0000040,0.0000000,0.0000000,0.0000000,0.0000199,0.0000000,0.0000000,0.0000040,0.0000000,0.0000000,0.0000000,0.0000199,0.0000000,0.0000000,0.0000040
90.8067610,1.3991500,,-0.9746941,-0.2235221,0.0002231,0.0030360,-0.0050877,0.0105626,-0.0038103,,,,0.9740785,-4.2225056,-11.5935087,0.0000000,0.0000000,0.0000000,0.0279830,0.0002006,0.0000000,0.0000000,0.0000200,0.0000000,0.0000000,0.0000000,0.0002006,0.0000000,0.0000000,0.0000200,0.0000000,0.0000000,0.0000000,0.0002006,0.0000000,0.0000000,0.0000200,0.0000200,0.0000000,0.0000000,0.0000040,0.0000000,0.0000000,0.0000000,0.0000200,0.0000000,0.0000000,0.0000040,0.0000000,0.0000000,0.0000000,0.0000200,0.0000000,0.0000000,0.0000040
90.8267090,1.0006001,,-0.9746943,-0.2235220,0.0002360,0.0030082,0.0002104,0.0023898,-0.0065514,,,,0.9740785,-4.2225056,-11.5935087,0.0000000,0.0000000,0.0000000,0.0200120,0.0002014,0.0000000,0.0000000,0.0000201,0.0000000,0.0000000,0.0000000,0.0002014,0.0000000,0.0000000,0.0000201,0.0000000,0.0000000,0.0000000,0.0002014,0.0000000,0.0000000,0.0000201,0.0000201,0.0000000,0.0000000,0.0000040,0.0000000,0.0000000,0.0000000,0.0000201,0.0000000,0.0000000,0.0000040,0.0000000,0.0000000,0.0000000,0.0000201,0.0000000,0.0000000,0.0000040
90.8481570,0.9996000,,-0.9746944,-0.2235221,0.0002322,0.0029683,0.0079787,0.0019044,-0.0108517,,,,0.9740785,-4.2225056,-11.5935087,0.0000000,0.0000000,0.0000000,0.0199920,0.0002022,0.0000000,0.0000000,0.0000202,0.0000000,0.0000000,0.0000000,0.0002022,0.0000000,0.0000000,0.0000202,0.0000000,0.0000000,0.0000000,0.0002022,0.0000000,0.0000000,0.0000202,0.0000202,0.0000000,0.0000000,0.0000040,0.0000000,0.0000000,0.0000000,0.0000202,0.0000000,0.0000000,0.0000040,0.0000000,0.0000000,0.0000000,0.0000202,0.0000000,0.0000000,0.0000040
90.8668070,0.9998500,,-0.9746945,-0.2235220,0.0002489,0.0029306,-0.0002984,0.0011506,-0.0115370,,,,0.9740785,-4.2225056,-11.5935087,0.0000000,0.0000000,0.0000000,0.0199970,0.0002030,0.0000000,0.0000000,0.0000203,0.0000000,0.0000000,0.0000000,0.0002030,0.0000000,0.0000000,0.0000203,0.0000000,0.0000000,0.0000000,0.0002030,0.0000000,0.0000000,0.0000203,0.0000203,0.0000000,0.0000000,0.0000040,0.0000000,0.0000000,0.0000000,0.0000203,0.0000000,0.0000000,0.0000040,0.0000000,0.0000000,0.0000000,0.0000203,0.0000000,0.0000000,0.0000040
90.8826530,,1.0000800,-0.9746945,-0.2235220,0.0002489,0.0029306,,,,0.0000000,0.0000000,0.0000000,0.9740785,-4.2225056,-11.5935087,0.0000000,0.0000000,0.0000000,0.1000080,0.0001990,0.0000000,0.0000000,0.0000199,0.0000000,0.0000000,0.0000000,0.0001990,0.0000000,0.0000000,0.0000199,0.0000000,0.0000000,0.0000000,0.0001990,0.0000000,0.0000000,0.0000199,0.0000199,0.0000000,0.0000000,0.0000040,0.0000000,0.0000000,0.0000000,0.0000199,0.0000000,0.0000000,0.0000040,0.0000000,0.0000000,0.0000000,0.0000199,0.0000000,0.0000000,0.0000040
90.8950130,1.0006500,,-0.9746944,-0.2235220,0.0002697,0.0029400,-0.0056500,-0.0089309,-0.0096824,,,,0.9740785,-4.2225056,-11.5935087,0.0000000,0.0000000,0.0000000,0.0200130,0.0001998,0.0000000,0.0000000,0.0000200,0.0000000,0.0000000,0.0000000,0.0001998,0.0000000,0.0000000,0.0000200,0.0000000,0.0000000,0.0000000,0.0001998,0.0000000,0.0000000,0.0000200,0.0000200,0.0000000,0.0000000,0.0000040,0.0000000,0.0000000,0.0000000,0.0000200,0.0000000,0.0000000,0.0000040,0.0000000,0.0000000,0.0000000,0.0000200,0.0000000,0.0000000,0.0000040
90.9096860,1.1494001,,-0.9746944,-0.2235219,0.0002893,0.0029618,-0.0022070,-0.0063652,-0.0043605,,,,0.9740785,-4.2225056,-11.5935087,0.0000000,0.0000000,0.0000000,0.0229880,0.0002007,0.0000000,0.0000000,0.0000200,0.0000000,0.0000000,0.0000000,0.0002007,0.0000000,0.0000000,0.0000200,0.0000000,0.0000000,0.0000000,0.0002007,0.0000000,0.0000000,0.0000200,0.0000200,0.0000000,0.0000000,0.0000040,0.0000000,0.0000000,0.0000000,0.0000200,0.0000000,0.0000000,0.0000040,0.0000000,0.0000000,0.0000000,0.0000200,0.0000000,0.0000000,0.0000040
90.9300190,1.0003999,,-0.9746944,-0.2235219,0.0002763,0.0029705,0.0065488,-0.0011913,0.0017184,,,,0.9740785,-4.2225056,-11.5935087,0.0000000,0.0000000,0.0000000,0.0200080,0.0002015,0.0000000,0.0000000,0.0000201,0.0000000,0.0000000,0.0000000,0.0002015,0.0000000,0.0000000,0.0000201,0.0000000,0.0000000,0.0000000,0.0002015,0.0000000,0.0000000,0.0000201,0.0000201,0.0000000,0.0000000,0.0000040,0.0000000,0.0000000,0.0000000,0.0000201,0.0000000,0.0000000,0.0000040,0.0000000,0.0000000,0.0000000,0.0000201,0.0000000,0.0000000,0.0000040
90.9496170,1.0000000,,-0.9746944,-0.2235219,0.0002782,0.0029750,0.0026412,-0.0044638,-0.0011016,,,,0.9740785,-4.2225056,-11.5935087,0.0000000,0.0000000,0.0000000,0.0200000,0.0002023,0.0000000,0.0000000,0.0000202,0.0000000,0.0000000,0.0000000,0.0002023,0.0000000,0.0000000,0.0000202,0.0000000,0.0000000,0.0000000,0.0002023,0.0000000,0.0000000,0.0000202,0.0000202,0.0000000,0.0000000,0.0000040,0.0000000,0.0000000,0.0000000,0.0000202,0.0000000,0.0000000,0.0000040,0.0000000,0.0000000,0.0000000,0.0000202,0.0000000,0.0000000,0.0000040
90.9697330,1.0000000,,-0.9746944,-0.2235220,0.0002714,0.0029779,0.0016486,-0.0026820,-0.0010467,,,,0.9740785,-4.2225056,-11.5935087,0.0000000,0.0000000,0.0000000,0.0200000,0.0002031,0.0000000,0.0000000,0.0000203,0.0000000,0.0000000,0.0000000,0.0002031,0.0000000,0.0000000,0.0000203,0.0000000,0.0000000,0.0000000,0.0002031,0.0000000,0.0000000,0.0000203,0.0000203,0.0000000,0.0000000,0.0000040,0.0000000,0.0000000,0.0000000,0.0000203,0.0000000,0.0000000,0.0000040,0.0000000,0.0000000,0.0000000,0.0000203,0.0000000,0.0000000,0.0000040
90.9854430,,1.0199200,-0.9746944,-0.2235220,0.0002714,0.0029779,,,,0.0000000,0.0000000,0.0000000,0.9740785,-4.2225056,-11.5935087,0.0000000,0.0000000,0.0000000,0.1019920,0.0001991,0.0000000,0.0000000,0.0000199,0.0000000,0.0000000,0.0000000,0.0001991,0.0000000,0.0000000,0.0000199,0.0000000,0.0000000,0.0000000,0.0001991,0.0000000,0.0000000,0.0000199,0.0000199,0.0000000,0.0000000,0.0000040,0.0000000,0.0000000,0.0000000,0.0000199,0.0000000,0.0000000,0.0000040,0.0000000,0.0000000,0.0000000,0.0000199,0.0000000,0.0000000,0.0000040
90.9995090,0.9999000,,-0.9746943,-0.2235221,0.0002387,0.0029773,0.0010990,0.0038088,-0.0054138,,,,0.9740785,-4.2225056,-11.5935087,0.0000000,0.0000000,0.0000000,0.0199980,0.0001999,0.0000000,0.0000000,0.0000200,0.0000000,0.0000000,0.0000000,0.0001999,0.0000000,0.0000000,0.0000200,0.0000000,0.0000000,0.0000000,0.0001999,0.0000000,0.0000000,0.0000200,0.0000200,0.0000000,0.0000000,0.0000040,0.0000000,0.0000000,0.0000000,0.0000200,0.0000000,0.0000000,0.0000040,0.0000000,0.0000000,0.0000000,0.0000200,0.0000000,0.0000000,0.0000040
91.0125890,1.1496500,,-0.9746943,-0.2235222,0.0001870,0.0029761,0.0053942,0.0041093,-0.0078415,,,,0.9740785,-4.2225056,-11.5935087,0.0000000,0.0000000,0.0000000,0.0229930,0.0002008,0.0000000,0.0000000,0.0000201,0.0000000,0.0000000,0.0000000,0.0002008,0.0000000,0.0000000,0.0000201,0.0000000,0.0000000,0.0000000,0.0002008,0.0000000,0.0000000,0.0000201,0.0000201,0.0000000,0.0000000,0.0000040,0.0000000,0.0000000,0.0000000,0.0000201,0.0000000,0.0000000,0.0000040,0.0000000,0.0000000,0.0000000,0.0000201,0.0000000,0.0000000,0.0000040
91.0338480,1.0506999,,-0.9746943,-0.2235223,0.0001566,0.0029852,0.0067941,0.0025658,0.0011986,,,,0.9740785,-4.2225056,-11.5935087,0.0000000,0.0000000,0.0000000,0.0210140,0.0002016,0.0000000,0.0000000,0.0000201,0.0000000,0.0000000,0.0000000,0.0002016,0.0000000,0.0000000,0.0000201,0.0000000,0.0000000,0.0000000,0.0002016,0.0000000,0.0000000,0.0000201,0.0000201,0.0000000,0.0000000,0.0000040,0.0000000,0.0000000,0.0000000,0.0000201,0.0000000,0.0000000,0.0000040,0.0000000,0.0000000,0.0000000,0.0000201,0.0000000,0.0000000,0.0000040
91.0539620,0.9995500,,-0.9746942,-0.2235224,0.0001323,0.0029973,0.0045414,0.0042431,0.0037655,,,,0.9740785,-4.2225056,-11.5935087,0.0000000,0.0000000,0.0000000,0.0199910,0.0002024,0.0000000,0.0000000,0.0000202,0.0000000,0.0000000,0.0000000,0.0002024,0.0000000,0.0000000,0.0000202,0.0000000,0.0000000,0.0000000,0.0002024,0.0000000,0.0000000,0.0000202,0.0000202,0.0000000,0.0000000,0.0000040,0.0000000,0.0000000,0.0000000,0.0000202,0.0000000,0.0000000,0.0000040,0.0000000,0.0000000,0.0000000,0.0000202,0.0000000,0.0000000,0.0000040
91.0746230,1.0502001,,-0.9746941,-0.2235225,0.0000916,0.0029931,0.0026293,0.0057837,-0.0015429,,,,0.9740785,-4.2225056,-11.5935087,0.0000000,0.0000000,0.0000000,0.0210040,0.0002033,0.0000000,0.0000000,0.0000203,0.0000000,0.0000000,0.0000000,0.0002033,0.0000000,0.0000000,0.0000203,0.0000000,0.0000000,0.0000000,0.0002033,0.0000000,0.0000000,0.0000203,0.0000203,0.0000000,0.0000000,0.0000040,0.0000000,0.0000000,0.0000000,0.0000203,0.0000000,0.0000000,0.0000040,0.0000000,0.0000000,0.0000000,0.0000203,0.0000000,0.0000000,0.0000040
91.0906260,,1.0000100,-0.9746941,-0.2235225,0.0000916,0.0029931,,,,0.0000000,0.0000000,0.0000000,0.9740785,-4.2225056,-11.5935087,0.0000000,0.0000000,0.0000000,0.1000010,0.0001992,0.0000000,0.0000000,0.0000199,0.0000000,0.0000000,0.0000000,0.0001992,0.0000000,0.0000000,0.0000199,0.0000000,0.0000000,0.0000000,0.0001992,0.0000000,0.0000000,0.0000199,0.0000199,0.0000000,0.0000000,0.0000040,0.0000000,0.0000000,0.0000000,0.0000199,0.0000000,0.0000000,0.0000040,0.0000000,0.0000000,0.0000000,0.0000199,0.0000000,0.0000000,0.0000040
91.1042410,0.9999000,,-0.9746941,-0.2235226,0.0000666,0.0029851,-0.0015006,-0.0005414,-0.0017556,,,,0.9740785,-4.2225056,-11.5935087,0.0000000,0.0000000,0.0000000,0.0199980,0.0002000,0.0000000,0.0000000,0.0000200,0.0000000,0.0000000,0.0000000,0.0002000,0.0000000,0.0000000,0.0000200,0.0000000,0.0000000,0.0000000,0.0002000,0.0000000,0.0000000,0.0000200,0.0000200,0.0000000,0.0000000,0.0000040,0.0000000,0.0000000,0.0000000,0.0000200,0.0000000,0.0000000,0.0000040,0.0000000,0.0000000,0.0000000,0.0000200,0.0000000,0.0000000,0.0000040
91.1175180,1.1496000,,-0.9746941,-0.2235226,0.0000473,0.0030061,0.0086110,0.0012247,-0.0052800,,,,0.9740785,-4.2225056,-11.5935087,0.0000000,0.0000000,0.0000000,0.0229920,0.0002009,0.0000000,0.0000000,0.0000201,0.0000000,0.0000000,0.0000000,0.0002009,0.0000000,0.0000000,0.0000201,0.0000000,0.0000000,0.0000000,0.0002009,0.0000000,0.0000000,0.0000201,0.0000201,0.0000000,0.0000000,0.0000040,0.0000000,0.0000000,0.0000000,0.0000201,0.0000000,0.0000000,0.0000040,0.0000000,0.0000000,0.0000000,0.0000201,0.0000000,0.0000000,0.0000040
91.1387920,1.0502001,,-0.9746940,-0.2235227,0.0000351,0.0030186,0.0041453,-0.0027751,-0.0033800,,,,0.9740785,-4.2225056,-11.5935087,0.0000000,0.0000000,0.0000000,0.0210040,0.0002018,0.0000000,0.0000000,0.0000202,0.0000000,0.0000000,0.0000000,0.0002018,0.0000000,0.0000000,0.0000202,0.0000000,0.0000000,0.0000000,0.0002018,0.0000000,0.0000000,0.0000202,0.0000202,0.0000000,0.0000000,0.0000040,0.0000000,0.0000000,0.0000000,0.0000202,0.0000000,0.0000000,0.0000040,0.0000000,0.0000000,0.0000000,0.0000202,0.0000000,0.0000000,0.0000040
91.1589410,1.0001501,,-0.9746940,-0.2235227,0.0000183,0.0030400,0.0048116,-0.0032796,-0.0102426,,,,0.9740785,-4.2225056,-11.5935087,0.0000000,0.0000000,0.0000000,0.0200030,0.0002026,0.0000000,0.0000000,0.0000202,0.0000000,0.0000000,0.0000000,0.0002026,0.0000000,0.0000000,0.0000202,0.0000000,0.0000000,0.0000000,0.0002026,0.0000000,0.0000000,0.0000202,0.0000202,0.0000000,0.0000000,0.0000040,0.0000000,0.0000000,0.0000000,0.0000202,0.0000000,0.0000000,0.0000040,0.0000000,0.0000000,0.0000000,0.0000202,0.0000000,0.0000000,0.0000040
91.1818060,,1.0000900,-0.9746940,-0.2235228,-0.0000199,0.0030313,,,,0.0000000,0.0000000,0.0000000,0.9740785,-4.2225056,-11.5935087,0.0000000,0.0000000,0.0000000,0.1000090,0.0001986,0.0000000,0.0000000,0.0000198,0.0000000,0.0000000,0.0000000,0.0001986,0.0000000,0.0000000,0.0000198,0.0000000,0.0000000,0.0000000,0.0001986,0.0000000,0.0000000,0.0000198,0.0000198,0.0000000,0.0000000,0.0000040,0.0000000,0.0000000,0.0000000,0.0000198,0.0000000,0.0000000,0.0000040,0.0000000,0.0000000,0.0000000,0.0000198,0.0000000,0.0000000,0.0000040
91.1954450,1.1001000,,-0.9746940,-0.2235228,-0.0000199,0.0030313,-0.0002721,0.0005651,-0.0051289,,,,0.9740785,-4.2225056,-11.5935087,0.0000000,0.0000000,0.0000000,0.0220020,0.0001994,0.0000000,0.0000000,0.0000199,0.0000000,0.0000000,0.0000000,0.0001994,0.0000000,0.0000000,0.0000199,0.0000000,0.0000000,0.0000000,0.0001994,0.0000000,0.0000000,0.0000199,0.0000199,0.0000000,0.0000000,0.0000040,0.0000000,0.0000000,0.0000000,0.0000199,0.0000000,0.0000000,0.0000040,0.0000000,0.0000000,0.0000000,0.0000199,0.0000000,0.0000000,0.0000040
91.2086990,1.3999001,,-0.9746939,-0.2235229,-0.0000586,0.0030534,0.0000623,-0.0057676,-0.0079432,,,,0.9740785,-4.2225056,-11.5935087,0.0000000,0.0000000,0.0000000,0.0279980,0.0002006,0.0000000,0.0000000,0.0000200,0.0000000,0.0000000,0.0000000,0.0002006,0.0000000,0.0000000,0.0000200,0.0000000,0.0000000,0.0000000,0.0002006,0.0000000,0.0000000,0.0000200,0.0000200,0.0000000,0.0000000,0.0000040,0.0000000,0.0000000,0.0000000,0.0000200,0.0000000,0.0000000,0.0000040,0.0000000,0.0000000,0.0000000,0.0000200,0.0000000,0.0000000,0.0000040
91.2285300,0.9998000,,-0.9746939,-0.2235230,-0.0000931,0.0030535,0.0041129,-0.0004195,-0.0059323,,,,0.9740785,-4.2225056,-11.5935087,0.0000000,0.0000000,0.0000000,0.0199960,0.0002014,0.0000000,0.0000000,0.0000201,0.0000000,0.0000000,0.0000000,0.0002014,0.0000000,0.0000000,0.0000201,0.0000000,0.0000000,0.0000000,0.0002014,0.0000000,0.0000000,0.0000201,0.0000201,0.0000000,0.0000000,0.0000040,0.0000000,0.0000000,0.0000000,0.0000201,0.0000000,0.0000000,0.0000040,0.0000000,0.0000000,0.0000000,0.0000201,0.0000000,0.0000000,0.0000040
91.2497560,1.0498999,,-0.9746938,-0.2235231,-0.0001135,0.0030768,0.0034374,-0.0025825,-0.0049269,,,,0.9740785,-4.2225056,-11.5935087,0.0000000,0.0000000,0.0000000,0.0209980,0.0002022,0.0000000,0.0000000,0.0000202,0.0000000,0.0000000,0.0000000,0.0002022,0.0000000,0.0000000,0.0000202,0.0000000,0.0000000,0.0000000,0.0002022,0.0000000,0.0000000,0.0000202,0.0000202,0.0000000,0.0000000,0.0000040,0.0000000,0.0000000,0.0000000,0.0000202,0.0000000,0.0000000,0.0000040,0.0000000,0.0000000,0.0000000,0.0000202,0.0000000,0.0000000,0.0000040
91.2712820,1.0006001,,-0.9746938,-0.2235231,-0.0001148,0.0030852,0.0038473,-0.0024509,-0.0012504,,,,0.9740785,-4.2225056,-11.5935087,0.0000000,0.0000000,0.0000000,0.0200120,0.0002030,0.0000000,0.0000000,0.0000203,0.0000000,0.0000000,0.0000000,0.0002030,0.0000000,0.0000000,0.0000203,0.0000000,0.0000000,0.0000000,0.0002030,0.0000000,0.0000000,0.0000203,0.0000203,0.0000000,0.0000000,0.0000040,0.0000000,0.0000000,0.0000000,0.0000203,0.0000000,0.0000000,0.0000040,0.0000000,0.0000000,0.0000000,0.0000203,0.0000000,0.0000000,0.0000040
91.2871200,,0.9999000,-0.9746938,-0.2235231,-0.0001218,0.0030617,,,,0.0000000,0.0000000,0.0000000,0.9740785,-4.2225056,-11.5935087,0.0000000,0.0000000,0.0000000,0.0999900,0.0001990,0.0000000,0.0000000,0.0000199,0.0000000,0.0000000,0.0000000,0.0001990,0.0000000,0.0000000,0.0000199,0.0000000,0.0000000,0.0000000,0.0001990,0.0000000,0.0000000,0.0000199,0.0000199,0.0000000,0.0000000,0.0000040,0.0000000,0.0000000,0.0000000,0.0000199,0.0000000,0.0000000,0.0000040,0.0000000,0.0000000,0.0000000,0.0000199,0.0000000,0.0000000,0.0000040
91.2999850,0.9994500,,-0.9746938,-0.2235231,-0.0001218,0.0030617,0.0064936,0.0004912,-0.0020977,,,,0.9740785,-4.2225056,-11.5935087,0.0000000,0.0000000,0.0000000,0.0199890,0.0001998,0.0000000,0.0000000,0.0000200,0.0000000,0.0000000,0.0000000,0.0001998,0.0000000,0.0000000,0.0000200,0.0000000,0.0000000,0.0000000,0.0001998,0.0000000,0.0000000,0.0000200,0.0000200,0.0000000,0.0000000,0.0000040,0.0000000,0.0000000,0.0000000,0.0000200,0.0000000,0.0000000,0.0000040,0.0000000,0.0000000,0.0000000,0.0000200,0.0000000,0.0000000,0.0000040
91.3146470,1.2499000,,-0.9746939,-0.2235233,-0.0001607,0.0030265,0.0055585,0.0031219,0.0001642,,,,0.9740785,-4.2225056,-11.5935087,0.0000000,0.0000000,0.0000000,0.0249980,0.0002008,0.0000000,0.0000000,0.0000201,0.0000000,0.0000000,0.0000000,0.0002008,0.0000000,0.0000000,0.0000201,0.0000000,0.0000000,0.0000000,0.0002008,0.0000000,0.0000000,0.0000201,0.0000201,0.0000000,0.0000000,0.0000040,0.0000000,0.0000000,0.0000000,0.0000201,0.0000000,0.0000000,0.0000040,0.0000000,0.0000000,0.0000000,0.0000201,0.0000000,0.0000000,0.0000040
91.3357490,1.0504500,,-0.9746940,-0.2235233,-0.0001665,0.0030060,-0.0004937,-0.0006897,0.0012952,,,,0.9740785,-4.2225056,-11.5935087,0.0000000,0.0000000,0.0000000,0.0210090,0.0002016,0.0000000,0.0000000,0.0000201,0.0000000,0.0000000,0.0000000,0.0002016,0.0000000,0.0000000,0.0000201,0.0000000,0.0000000,0.0000000,0.0002016,0.0000000,0.0000000,0.0000201,0.0000201,0.0000000,0.0000000,0.0000040,0.0000000,0.0000000,0.0000000,0.0000201,0.0000000,0.0000000,0.0000040,0.0000000,0.0000000,0.0000000,0.0000201,0.0000000,0.0000000,0.0000040
91.3557260,0.9996000,,-0.9746940,-0.2235234,-0.0001949,0.0029751,-0.0006283,0.0063843,0.0011282,,,,0.9740785,-4.2225056,-11.5935087,0.0000000,0.0000000,0.0000000,0.0199920,0.0002024,0.0000000,0.0000000,0.0000202,0.0000000,0.0000000,0.0000000,0.0002024,0.0000000,0.0000000,0.0000202,0.0000000,0.0000000,0.0000000,0.0002024,0.0000000,0.0000000,0.0000202,0.0000202,0.0000000,0.0000000,0.0000040,0.0000000,0.0000000,0.0000000,0.0000202,0.0000000,0.0000000,0.0000040,0.0000000,0.0000000,0.0000000,0.0000202,0.0000000,0.0000000,0.0000040
91.3759180,1.0000000,,-0.9746940,-0.2235235,-0.0002162,0.0029847,0.0031801,-0.0039490,-0.0004201,,,,0.9740785,-4.2225056,-11.5935087,0.0000000,0.0000000,0.0000000,0.0200000,0.0002032,0.0000000,0.0000000,0.0000203,0.0000000,0.0000000,0.0000000,0.0002032,0.0000000,0.0000000,0.0000203,0.0000000,0.0000000,0.0000000,0.0002032,0.0000000,0.0000000,0.0000203,0.0000203,0.0000000,0.0000000,0.0000040,0.0000000,0.0000000,0.0000000,0.0000203,0.0000000,0.0000000,0.0000040,0.0000000,0.0000000,0.0000000,0.0000203,0.0000000,0.0000000,0.0000040
91.3905800,,1.0200000,-0.9746940,-0.2235235,-0.0002162,0.0029847,,,,0.0000000,0.0000000,0.0000000,0.9740785,-4.2225056,-11.5935087,0.0000000,0.0000000,0.0000000,0.1020000,0.0001992,0.0000000,0.0000000,0.0000199,0.0000000,0.0000000,0.0000000,0.0001992,0.0000000,0.0000000,0.0000199,0.0000000,0.0000000,0.0000000,0.0001992,0.0000000,0.0000000,0.0000199,0.0000199,0.0000000,0.0000000,0.0000040,0.0000000,0.0000000,0.0000000,0.0000199,0.0000000,0.0000000,0.0000040,0.0000000,0.0000000,0.0000000,0.0000199,0.0000000,0.0000000,0.0000040
91.4041970,1.0003999,,-0.9746940,-0.2235235,-0.0002298,0.0029746,0.0016740,-0.0027985,-0.0029032,,,,0.9740785,-4.2225056,-11.5935087,0.0000000,0.0000000,0.0000000,0.0200080,0.0002000,0.0000000,0.0000000,0.0000200,0.0000000,0.0000000,0.0000000,0.0002000,0.0000000,0.0000000,0.0000200,0.0000000,0.0000000,0.0000000,0.0002000,0.0000000,0.0000000,0.0000200,0.0000200,0.0000000,0.0000000,0.0000040,0.0000000,0.0000000,0.0000000,0.0000200,0.0000000,0.0000000,0.0000040,0.0000000,0.0000000,0.0000000,0.0000200,0.0000000,0.0000000,0.0000040
91.4175550,1.0996000,,-0.9746940,-0.2235235,-0.0002199,0.0029872,0.0026528,-0.0019333,0.0014705,,,,0.9740785,-4.2225056,-11.5935087,0.0000000,0.0000000,0.0000000,0.0219920,0.0002008,0.0000000,0.0000000,0.0000201,0.0000000,0.0000000,0.0000000,0.0002008,0.0000000,0.0000000,0.0000201,0.0000000,0.0000000,0.0000000,0.0002008,0.0000000,0.0000000,0.0000201,0.0000201,0.0000000,0.0000000,0.0000040,0.0000000,0.0000000,0.0000000,0.0000201,0.0000000,0.0000000,0.0000040,0.0000000,0.0000000,0.0000000,0.0000201,0.0000000,0.0000000,0.0000040
91.4380130,1.0000501,,-0.9746940,-0.2235234,-0.0002077,0.0029810,0.0031574,-0.0039650,-0.0026904,,,,0.9740785,-4.2225056,-11.5935087,0.0000000,0.0000000,0.0000000,0.0200010,0.0002016,0.0000000,0.0000000,0.0000201,0.0000000,0.0000000,0.0000000,0.0002016,0.0000000,0.0000000,0.0000201,0.0000000,0.0000000,0.0000000,0.0002016,0.0000000,0.0000000,0.0000201,0.0000201,0.0000000,0.0000000,0.0000040,0.0000000,0.0000000,0.0000000,0.0000201,0.0000000,0.0000000,0.0000040,0.0000000,0.0000000,0.0000000,0.0000201,0.0000000,0.0000000,0.0000040
91.4577000,0.9999500,,-0.9746940,-0.2235234,-0.0001939,0.0029767,0.0009836,-0.0000980,-0.0030618,,,,0.9740785,-4.2225056,-11.5935087,0.0000000,0.0000000,0.0000000,0.0199990,0.0002025,0.0000000,0.0000000,0.0000202,0.0000000,0.0000000,0.0000000,0.0002025,0.0000000,0.0000000,0.0000202,0.0000000,0.0000000,0.0000000,0.0002025,0.0000000,0.0000000,0.0000202,0.0000202,0.0000000,0.0000000,0.0000040,0.0000000,0.0000000,0.0000000,0.0000202,0.0000000,0.0000000,0.0000040,0.0000000,0.0000000,0.0000000,0.0000202,0.0000000,0.0000000,0.0000040
91.4777360,1.0000000,,-0.9746940,-0.2235235,-0.0002169,0.0029567,0.0025365,0.0022779,0.0009029,,,,0.9740785,-4.2225056,-11.5935087,0.0000000,0.0000000,0.0000000,0.0200000,0.0002033,0.0000000,0.0000000,0.0000203,0.0000000,0.0000000,0.0000000,0.0002033,0.0000000,0.0000000,0.0000203,0.0000000,0.0000000,0.0000000,0.0002033,0.0000000,0.0000000,0.0000203,0.0000203,0.0000000,0.0000000,0.0000040,0.0000000,0.0000000,0.0000000,0.0000203,0.0000000,0.0000000,0.0000040,0.0000000,0.0000000,0.0000000,0.0000203,0.0000000,0.0000000,0.0000040
91.4937490,,1.0200399,-0.9746940,-0.2235235,-0.0002169,0.0029567,,,,0.0000000,0.0000000,0.0000000,0.9740785,-4.2225056,-11.5935087,0.0000000,0.0000000,0.0000000,0.1020040,0.0001992,0.0000000,0.0000000,0.0000199,0.0000000,0.0000000,0.0000000,0.0001992,0.0000000,0.0000000,0.0000199,0.0000000,0.0000000,0.0000000,0.0001992,0.0000000,0.0000000,0.0000199,0.0000199,0.0000000,0.0000000,0.0000040,0.0000000,0.0000000,0.0000000,0.0000199,0.0000000,0.0000000,0.0000040,0.0000000,0.0000000,0.0000000,0.0000199,0.0000000,0.0000000,0.0000040
91.5076150,1.0001000,,-0.9746940,-0.2235235,-0.0002127,0.0029525,0.0035800,-0.0014016,0.0004438,,,,0.9740785,-4.2225056,-11.5935087,0.0000000,0.0000000,0.0000000,0.0200020,0.0002000,0.0000000,0.0000000,0.0000200,0.0000000,0.0000000,0.0000000,0.0002000,0.0000000,0.0000000,0.0000200,0.0000000,0.0000000,0.0000000,0.0002000,0.0000000,0.0000000,0.0000200,0.0000200,0.0000000,0.0000000,0.0000040,0.0000000,0.0000000,0.0000000,0.0000200,0.0000000,0.0000000,0.0000040,0.0000000,0.0000000,0.0000000,0.0000200,0.0000000,0.0000000,0.0000040
91.5205520,1.1498500,,-0.9746940,-0.2235235,-0.0002057,0.0029641,-0.0012618,-0.0002812,-0.0010064,,,,0.9740785,-4.2225056,-11.5935087,0.0000000,0.0000000,0.0000000,0.0229970,0.0002009,0.0000000,0.0000000,0.0000201,0.0000000,0.0000000,0.0000000,0.0002009,0.0000000,0.0000000,0.0000201,0.0000000,0.0000000,0.0000000,0.0002009,0.0000000,0.0000000,0.0000201,0.0000201,0.0000000,0.0000000,0.0000040,0.0000000,0.0000000,0.0000000,0.0000201,0.0000000,0.0000000,0.0000040,0.0000000,0.0000000,0.0000000,0.0000201,0.0000000,0.0000000,0.0000040
91.5420060,1.0500000,,-0.9746940,-0.2235235,-0.0002103,0.0029609,-0.0036979,0.0073362,-0.0027081,,,,0.9740785,-4.2225056,-11.5935087,0.0000000,0.0000000,0.0000000,0.0210000,0.0002018,0.0000000,0.0000000,0.0000202,0.0000000,0.0000000,0.0000000,0.0002018,0.0000000,0.0000000,0.0000202,0.0000000,0.0000000,0.0000000,0.0002018,0.0000000,0.0000000,0.0000202,0.0000202,0.0000000,0.0000000,0.0000040,0.0000000,0.0000000,0.0000000,0.0000202,0.0000000,0.0000000,0.0000040,0.0000000,0.0000000,0.0000000,0.0000202,0.0000000,0.0000000,0.0000040
91.5617260,1.0000501,,-0.9746941,-0.2235235,-0.0001892,0.0029447,-0.0097454,-0.0040071,-0.0050238,,,,0.9740785,-4.2225056,-11.5935087,0.0000000,0.0000000,0.0000000,0.0200010,0.0002026,0.0000000,0.0000000,0.0000202,0.0000000,0.0000000,0.0000000,0.0002026,0.0000000,0.0000000,0.0000202,0.0000000,0.0000000,0.0000000,0.0002026,0.0000000,0.0000000,0.0000202,0.0000202,0.0000000,0.0000000,0.0000040,0.0000000,0.0000000,0.0000000,0.0000202,0.0000000,0.0000000,0.0000040,0.0000000,0.0000000,0.0000000,0.0000202,0.0000000,0.0000000,0.0000040
91.5817700,1.0000000,,-0.9746941,-0.2235235,-0.0002087,0.0029258,0.0030466,-0.0021485,-0.0015430,,,,0.9740785,-4.2225056,-11.5935087,0.0000000,0.0000000,0.0000000,0.0200000,0.0002034,0.0000000,0.0000000,0.0000203,0.0000000,0.0000000,0.0000000,0.0002034,0.0000000,0.0000000,0.0000203,0.0000000,0.0000000,0.0000000,0.0002034,0.0000000,0.0000000,0.0000203,0.0000203,0.0000000,0.0000000,0.0000040,0.0000000,0.0000000,0.0000000,0.0000203,0.0000000,0.0000000,0.0000040,0.0000000,0.0000000,0.0000000,0.0000203,0.0000000,0.0000000,0.0000040
91.5977200,,1.0000000,-0.9746941,-0.2235235,-0.0002087,0.0029258,,,,0.0000000,0.0000000,0.0000000,0.9740785,-4.2225056,-11.5935087,0.0000000,0.0000000,0.0000000,0.1000000,0.0001993,0.0000000,0.0000000,0.0000199,0.0000000,0.0000000,0.0000000,0.0001993,0.0000000,0.0000000,0.0000199,0.0000000,0.0000000,0.0000000,0.0001993,0.0000000,0.0000000,0.0000199,0.0000199,0.0000000,0.0000000,0.0000040,0.0000000,0.0000000,0.0000000,0.0000199,0.0000000,0.0000000,0.0000040,0.0000000,0.0000000,0.0000000,0.0000199,0.0000000,0.0000000,0.0000040
91.6117210,1.0010000,,-0.9746941,-0.2235236,-0.0002196,0.0029248,0.0069936,-0.0034012,-0.0037088,,,,0.9740785,-4.2225056,-11.5935087,0.0000000,0.0000000,0.0000000,0.0200200,0.0002001,0.0000000,0.0000000,0.0000200,0.0000000,0.0000000,0.0000000,0.0002001,0.0000000,0.0000000,0.0000200,0.0000000,0.0000000,0.0000000,0.0002001,0.0000000,0.0000000,0.0000200,0.0000200,0.0000000,0.0000000,0.0000040,0.0000000,0.0000000,0.0000000,0.0000200,0.0000000,0.0000000,0.0000040,0.0000000,0.0000000,0.0000000,0.0000200,0.0000000,0.0000000,0.0000040
91.6245480,1.1489501,,-0.9746943,-0.2235236,-0.0002182,0.0028820,-0.0022253,0.0019997,-0.0045476,,,,0.9740785,-4.2225056,-11.5935087,0.0000000,0.0000000,0.0000000,0.0229790,0.0002010,0.0000000,0.0000000,0.0000201,0.0000000,0.0000000,0.0000000,0.0002010,0.0000000,0.0000000,0.0000201,0.0000000,0.0000000,0.0000000,0.0002010,0.0000000,0.0000000,0.0000201,0.0000201,0.0000000,0.0000000,0.0000040,0.0000000,0.0000000,0.0000000,0.0000201,0.0000000,0.0000000,0.0000040,0.0000000,0.0000000,0.0000000,0.0000201,0.0000000,0.0000000,0.0000040
91.6446490,1.0002000,,-0.9746943,-0.2235236,-0.0002074,0.0028636,-0.0014483,-0.0016399,-0.0047228,,,,0.9740785,-4.2225056,-11.5935087,0.0000000,0.0000000,0.0000000,0.0200040,0.0002018,0.0000000,0.0000000,0.0000202,0.0000000,0.0000000,0.0000000,0.0002018,0.0000000,0.0000000,0.0000202,0.0000000,0.0000000,0.0000000,0.0002018,0.0000000,0.0000000,0.0000202,0.0000202,0.0000000,0.0000000,0.0000040,0.0000000,0.0000000,0.0000000,0.0000202,0.0000000,0.0000000,0.0000040,0.0000000,0.0000000,0.0000000,0.0000202,0.0000000,0.0000000,0.0000040
91.6655100,1.0499500,,-0.9746944,-0.2235236,-0.0001951,0.0028473,0.0001761,-0.0002935,0.0039786,,,,0.9740785,-4.2225056,-11.5935087,0.0000000,0.0000000,0.0000000,0.0209990,0.0002027,0.0000000,0.0000000,0.0000202,0.0000000,0.0000000,0.0000000,0.0002027,0.0000000,0.0000000,0.0000202,0.0000000,0.0000000,0.0000000,0.0002027,0.0000000,0.0000000,0.0000202,0.0000202,0.0000000,0.0000000,0.0000040,0.0000000,0.0000000,0.0000000,0.0000202,0.0000000,0.0000000,0.0000040,0.0000000,0.0000000,0.0000000,0.0000202,0.0000000,0.0000000,0.0000040
91.6883240,,1.0099601,-0.9746944,-0.2235236,-0.0001908,0.0028339,,,,0.0000000,0.0000000,0.0000000,0.9740785,-4.2225056,-11.5935087,0.0000000,0.0000000,0.0000000,0.1009960,0.0001987,0.0000000,0.0000000,0.0000198,0.0000000,0.0000000,0.0000000,0.0001987,0.0000000,0.0000000,0.0000198,0.0000000,0.0000000,0.0000000,0.0001987,0.0000000,0.0000000,0.0000198,0.0000198,0.0000000,0.0000000,0.0000040,0.0000000,0.0000000,0.0000000,0.0000198,0.0000000,0.0000000,0.0000040,0.0000000,0.0000000,0.0000000,0.0000198,0.0000000,0.0000000,0.0000040
91.7016450,1.0999500,,-0.9746944,-0.2235236,-0.0001908,0.0028339,-0.0051152,0.0030499,-0.0036336,,,,0.9740785,-4.2225056,-11.5935087,0.0000000,0.0000000,0.0000000,0.0219990,0.0001995,0.0000000,0.0000000,0.0000199,0.0000000,0.0000000,0.0000000,0.0001995,0.0000000,0.0000000,0.0000199,0.0000000,0.0000000,0.0000000,0.0001995,0.0000000,0.0000000,0.0000199,0.0000199,0.0000000,0.0000000,0.0000040,0.0000000,0.0000000,0.0000000,0.0000199,0.0000000,0.0000000,0.0000040,0.0000000,0.0000000,0.0000000,0.0000199,0.0000000,0.0000000,0.0000040
91.7147870,1.3499000,,-0.9746945,-0.2235236,-0.0001814,0.0027933,0.0037443,0.0085669,-0.0045023,,,,0.9740785,-4.2225056,-11.5935087,0.0000000,0.0000000,0.0000000,0.0269980,0.0002006,0.0000000,0.0000000,0.0000200,0.0000000,0.0000000,0.0000000,0.0002006,0.0000000,0.0000000,0.0000200,0.0000000,0.0000000,0.0000000,0.0002006,0.0000000,0.0000000,0.0000200,0.0000200,0.0000000,0.0000000,0.0000040,0.0000000,0.0000000,0.0000000,0.0000200,0.0000000,0.0000000,0.0000040,0.0000000,0.0000000,0.0000000,0.0000200,0.0000000,0.0000000,0.0000040
91.7349160,1.0006500,,-0.9746946,-0.2235236,-0.0001668,0.0027782,0.0057479,0.0030399,-0.0025029,,,,0.9740785,-4.2225056,-11.5935087,0.0000000,0.0000000,0.0000000,0.0200130,0.0002014,0.0000000,0.0000000,0.0000201,0.0000000,0.0000000,0.0000000,0.0002014,0.0000000,0.0000000,0.0000201,0.0000000,0.0000000,0.0000000,0.0002014,0.0000000,0.0000000,0.0000201,0.0000201,0.0000000,0.0000000,0.0000040,0.0000000,0.0000000,0.0000000,0.0000201,0.0000000,0.0000000,0.0000040,0.0000000,0.0000000,0.0000000,0.0000201,0.0000000,0.0000000,0.0000040
91.7547580,0.9995000,,-0.9746946,-0.2235236,-0.0001723,0.0027709,0.0064826,0.0019777,0.0006940,,,,0.9740785,-4.2225056,-11.5935087,0.0000000,0.0000000,0.0000000,0.0199900,0.0002022,0.0000000,0.0000000,0.0000202,0.0000000,0.0000000,0.0000000,0.0002022,0.0000000,0.0000000,0.0000202,0.0000000,0.0000000,0.0000000,0.0002022,0.0000000,0.0000000,0.0000202,0.0000202,0.0000000,0.0000000,0.0000040,0.0000000,0.0000000,0.0000000,0.0000202,0.0000000,0.0000000,0.0000040,0.0000000,0.0000000,0.0000000,0.0000202,0.0000000,0.0000000,0.0000040
91.7747760,1.0003500,,-0.9746946,-0.2235236,-0.0001811,0.0027666,0.0097645,0.0024232,0.0079077,,,,0.9740785,-4.2225056,-11.5935087,0.0000000,0.0000000,0.0000000,0.0200070,0.0002030,0.0000000,0.0000000,0.0000203,0.0000000,0.0000000,0.0000000,0.0002030,0.0000000,0.0000000,0.0000203,0.0000000,0.0000000,0.0000000,0.0002030,0.0000000,0.0000000,0.0000203,0.0000203,0.0000000,0.0000000,0.0000040,0.0000000,0.0000000,0.0000000,0.0000203,0.0000000,0.0000000,0.0000040,0.0000000,0.0000000,0.0000000,0.0000203,0.0000000,0.0000000,0.0000040
91.7907280,,1.0000000,-0.9746946,-0.2235236,-0.0001811,0.0027666,,,,0.0000000,0.0000000,0.0000000,0.9740785,-4.2225056,-11.5935087,0.0000000,0.0000000,0.0000000,0.1000000,0.0001990,0.0000000,0.0000000,0.0000199,0.0000000,0.0000000,0.0000000,0.0001990,0.0000000,0.0000000,0.0000199,0.0000000,0.0000000,0.0000000,0.0001990,0.0000000,0.0000000,0.0000199,0.0000199,0.0000000,0.0000000,0.0000040,0.0000000,0.0000000,0.0000000,0.0000199,0.0000000,0.0000000,0.0000040,0.0000000,0.0000000,0.0000000,0.0000199,0.0000000,0.0000000,0.0000040
91.8045660,1.0000000,,-0.9746946,-0.2235236,-0.0001807,0.0027661,0.0045771,-0.0024734,0.0112705,,,,0.9740785,-4.2225056,-11.5935087,0.0000000,0.0000000,0.0000000,0.0200000,0.0001998,0.0000000,0.0000000,0.0000200,0.0000000,0.0000000,0.0000000,0.0001998,0.0000000,0.0000000,0.0000200,0.0000000,0.0000000,0.0000000,0.0001998,0.0000000,0.0000000,0.0000200,0.0000200,0.0000000,0.0000000,0.0000040,0.0000000,0.0000000,0.0000000,0.0000200,0.0000000,0.0000000,0.0000040,0.0000000,0.0000000,0.0000000,0.0000200,0.0000000,0.0000000,0.0000040
91.8175320,1.1495000,,-0.9746945,-0.2235236,-0.0002027,0.0027853,0.0038907,-0.0031898,0.0048952,,,,0.9740785,-4.2225056,-11.5935087,0.0000000,0.0000000,0.0000000,0.0229900,0.0002007,0.0000000,0.0000000,0.0000201,0.0000000,0.0000000,0.0000000,0.0002007,0.0000000,0.0000000,0.0000201,0.0000000,0.0000000,0.0000000,0.0002007,0.0000000,0.0000000,0.0000201,0.0000201,0.0000000,0.0000000,0.0000040,0.0000000,0.0000000,0.0000000,0.0000201,0.0000000,0.0000000,0.0000040,0.0000000,0.0000000,0.0000000,0.0000201,0.0000000,0.0000000,0.0000040
91.8402970,1.0507500,,-0.9746945,-0.2235236,-0.0002011,0.0027889,0.0018614,-0.0052647,0.0019517,,,,0.9740785,-4.2225056,-11.5935087,0.0000000,0.0000000,0.0000000,0.0210150,0.0002015,0.0000000,0.0000000,0.0000201,0.0000000,0.0000000,0.0000000,0.0002015,0.0000000,0.0000000,0.0000201,0.0000000,0.0000000,0.0000000,0.0002015,0.0000000,0.0000000,0.0000201,0.0000201,0.0000000,0.0000000,0.0000040,0.0000000,0.0000000,0.0000000,0.0000201,0.0000000,0.0000000,0.0000040,0.0000000,0.0000000,0.0000000,0.0000201,0.0000000,0.0000000,0.0000040
91.8588170,0.9997000,,-0.9746945,-0.2235237,-0.0002192,0.0027975,0.0037383,-0.0011675,0.0009682,,,,0.9740785,-4.2225056,-11.5935087,0.0000000,0.0000000,0.0000000,0.0199940,0.0002024,0.0000000,0.0000000,0.0000202,0.0000000,0.0000000,0.0000000,0.0002024,0.0000000,0.0000000,0.0000202,0.0000000,0.0000000,0.0000000,0.0002024,0.0000000,0.0000000,0.0000202,0.0000202,0.0000000,0.0000000,0.0000040,0.0000000,0.0000000,0.0000000,0.0000202,0.0000000,0.0000000,0.0000040,0.0000000,0.0000000,0.0000000,0.0000202,0.0000000,0.0000000,0.0000040
91.8789270,0.9997500,,-0.9746945,-0.2235237,-0.0002221,0.0028017,0.0032272,-0.0066873,-0.0009884,,,,0.9740785,-4.2225056,-11.5935087,0.0000000,0.0000000,0.0000000,0.0199950,0.0002032,0.0000000,0.0000000,0.0000203,0.0000000,0.0000000,0.0000000,0.0002032,0.0000000,0.0000000,0.0000203,0.0000000,0.0000000,0.0000000,0.0002032,0.0000000,0.0000000,0.0000203,0.0000203,0.0000000,0.0000000,0.0000040,0.0000000,0.0000000,0.0000000,0.0000203,0.0000000,0.0000000,0.0000040,0.0000000,0.0000000,0.0000000,0.0000203,0.0000000,0.0000000,0.0000040
91.8946580,,1.0200000,-0.9746945,-0.2235237,-0.0002221,0.0028021,,,,0.0000000,0.0000000,0.0000000,0.9740785,-4.2225056,-11.5935087,0.0000000,0.0000000,0.0000000,0.1020000,0.0001991,0.0000000,0.0000000,0.0000199,0.0000000,0.0000000,0.0000000,0.0001991,0.0000000,0.0000000,0.0000199,0.0000000,0.0000000,0.0000000,0.0001991,0.0000000,0.0000000,0.0000199,0.0000199,0.0000000,0.0000000,0.0000040,0.0000000,0.0000000,0.0000000,0.0000199,0.0000000,0.0000000,0.0000040,0.0000000,0.0000000,0.0000000,0.0000199,0.0000000,0.0000000,0.0000040
91.9086160,1.0003500,,-0.9746945,-0.2235237,-0.0002176,0.0028021,-0.0011711,-0.0070057,-0.0051405,,,,0.9740785,-4.2225056,-11.5935087,0.0000000,0.0000000,0.0000000,0.0200070,0.0001999,0.0000000,0.0000000,0.0000200,0.0000000,0.0000000,0.0000000,0.0001999,0.0000000,0.0000000,0.0000200,0.0000000,0.0000000,0.0000000,0.0001999,0.0000000,0.0000000,0.0000200,0.0000200,0.0000000,0.0000000,0.0000040,0.0000000,0.0000000,0.0000000,0.0000200,0.0000000,0.0000000,0.0000040,0.0000000,0.0000000,0.0000000,0.0000200,0.0000000,0.0000000,0.0000040
91.9215880,1.1499500,,-0.9746944,-0.2235236,-0.0002107,0.0028212,-0.0006847,-0.0124979,-0.0028220,,,,0.9740785,-4.2225056,-11.5935087,0.0000000,0.0000000,0.0000000,0.0229990,0.0002008,0.0000000,0.0000000,0.0000201,0.0000000,0.0000000,0.0000000,0.0002008,0.0000000,0.0000000,0.0000201,0.0000000,0.0000000,0.0000000,0.0002008,0.0000000,0.0000000,0.0000201,0.0000201,0.0000000,0.0000000,0.0000040,0.0000000,0.0000000,0.0000000,0.0000201,0.0000000,0.0000000,0.0000040,0.0000000,0.0000000,0.0000000,0.0000201,0.0000000,0.0000000,0.0000040
91.9427210,1.0495499,,-0.9746944,-0.2235236,-0.0002200,0.0028499,-0.0019369,-0.0059285,-0.0058132,,,,0.9740785,-4.2225056,-11.5935087,0.0000000,0.0000000,0.0000000,0.0209910,0.0002017,0.0000000,0.0000000,0.0000201,0.0000000,0.0000000,0.0000000,0.0002017,0.0000000,0.0000000,0.0000201,0.0000000,0.0000000,0.0000000,0.0002017,0.0000000,0.0000000,0.0000201,0.0000201,0.0000000,0.0000000,0.0000040,0.0000000,0.0000000,0.0000000,0.0000201,0.0000000,0.0000000,0.0000040,0.0000000,0.0000000,0.0000000,0.0000201,0.0000000,0.0000000,0.0000040
91.9630110,1.0000501,,-0.9746943,-0.2235236,-0.0002094,0.0028632,-0.0079036,-0.0009348,-0.0041349,,,,0.9740785,-4.2225056,-11.5935087,0.0000000,0.0000000,0.0000000,0.0200010,0.0002025,0.0000000,0.0000000,0.0000202,0.0000000,0.0000000,0.0000000,0.0002025,0.0000000,0.0000000,0.0000202,0.0000000,0.0000000,0.0000000,0.0002025,0.0000000,0.0000000,0.0000202,0.0000202,0.0000000,0.0000000,0.0000040,0.0000000,0.0000000,0.0000000,0.0000202,0.0000000,0.0000000,0.0000040,0.0000000,0.0000000,0.0000000,0.0000202,0.0000000,0.0000000,0.0000040
91.9830170,0.9999500,,-0.9746944,-0.2235236,-0.0001857,0.0028359,-0.0003355,0.0054148,-0.0013427,,,,0.9740785,-4.2225056,-11.5935087,0.0000000,0.0000000,0.0000000,0.0199990,0.0002033,0.0000000,0.0000000,0.0000203,0.0000000,0.0000000,0.0000000,0.0002033,0.0000000,0.0000000,0.0000203,0.0000000,0.0000000,0.0000000,0.0002033,0.0000000,0.0000000,0.0000203,0.0000203,0.0000000,0.0000000,0.0000040,0.0000000,0.0000000,0.0000000,0.0000203,0.0000000,0.0000000,0.0000040,0.0000000,0.0000000,0.0000000,0.0000203,0.0000000,0.0000000,0.0000040
91.9996620,,1.0000199,-0.9746944,-0.2235236,-0.0001857,0.0028098,,,,0.0000000,0.0000000,0.0000000,0.9740785,-4.2225056,-11.5935087,0.0000000,0.0000000,0.0000000,0.1000020,0.0001992,0.0000000,0.0000000,0.0000199,0.0000000,0.0000000,0.0000000,0.0001992,0.0000000,0.0000000,0.0000199,0.0000000,0.0000000,0.0000000,0.0001992,0.0000000,0.0000000,0.0000199,0.0000199,0.0000000,0.0000000,0.0000040,0.0000000,0.0000000,0.0000000,0.0000199,0.0000000,0.0000000,0.0000040,0.0000000,0.0000000,0.0000000,0.0000199,0.0000000,0.0000000,0.0000040
92.0135490,1.0002501,,-0.9746944,-0.2235236,-0.0001899,0.0028098,0.0021974,0.0056218,-0.0031204,,,,0.9740785,-4.2225056,-11.5935087,0.0000000,0.0000000,0.0000000,0.0200050,0.0002000,0.0000000,0.0000000,0.0000200,0.0000000,0.0000000,0.0000000,0.0002000,0.0000000,0.0000000,0.0000200,0.0000000,0.0000000,0.0000000,0.0002000,0.0000000,0.0000000,0.0000200,0.0000200,0.0000000,0.0000000,0.0000040,0.0000000,0.0000000,0.0000000,0.0000200,0.0000000,0.0000000,0.0000040,0.0000000,0.0000000,0.0000000,0.0000200,0.0000000,0.0000000,0.0000040
92.0263030,1.1997001,,-0.9746946,-0.2235235,-0.0001377,0.0027840,0.0004044,0.0008425,0.0018578,,,,0.9740785,-4.2225056,-11.5935087,0.0000000,0.0000000,0.0000000,0.0239940,0.0002010,0.0000000,0.0000000,0.0000201,0.0000000,0.0000000,0.0000000,0.0002010,0.0000000,0.0000000,0.0000201,0.0000000,0.0000000,0.0000000,0.0002010,0.0000000,0.0000000,0.0000201,0.0000201,0.0000000,0.0000000,0.0000040,0.0000000,0.0000000,0.0000000,0.0000201,0.0000000,0.0000000,0.0000040,0.0000000,0.0000000,0.0000000,0.0000201,0.0000000,0.0000000,0.0000040
92.0476150,1.0501001,,-0.9746946,-0.2235234,-0.0001135,0.0027806,0.0051155,0.0026262,-0.0007877,,,,0.9740785,-4.2225056,-11.5935087,0.0000000,0.0000000,0.0000000,0.0210020,0.0002018,0.0000000,0.0000000,0.0000202,0.0000000,0.0000000,0.0000000,0.0002018,0.0000000,0.0000000,0.0000202,0.0000000,0.0000000,0.0000000,0.0002018,0.0000000,0.0000000,0.0000202,0.0000202,0.0000000,0.0000000,0.0000040,0.0000000,0.0000000,0.0000000,0.0000202,0.0000000,0.0000000,0.0000040,0.0000000,0.0000000,0.0000000,0.0000202,0.0000000,0.0000000,0.0000040
92.0680110,1.0000000,,-0.9746946,-0.2235234,-0.0000964,0.0027750,0.0006428,-0.0001518,-0.0013781,,,,0.9740785,-4.2225056,-11.5935087,0.0000000,0.0000000,0.0000000,0.0200000,0.0002026,0.0000000,0.0000000,0.0000202,0.0000000,0.0000000,0.0000000,0.0002026,0.0000000,0.0000000,0.0000202,0.0000000,0.0000000,0.0000000,0.0002026,0.0000000,0.0000000,0.0000202,0.0000202,0.0000000,0.0000000,0.0000040,0.0000000,0.0000000,0.0000000,0.0000202,0.0000000,0.0000000,0.0000040,0.0000000,0.0000000,0.0000000,0.0000202,0.0000000,0.0000000,0.0000040
92.0889390,,0.9999700,-0.9746947,-0.2235234,-0.0000770,0.0027504,,,,0.0000000,0.0000000,0.0000000,0.9740785,-4.2225056,-11.5935087,0.0000000,0.0000000,0.0000000,0.0999970,0.0001986,0.0000000,0.0000000,0.0000198,0.0000000,0.0000000,0.0000000,0.0001986,0.0000000,0.0000000,0.0000198,0.0000000,0.0000000,0.0000000,0.0001986,0.0000000,0.0000000,0.0000198,0.0000198,0.0000000,0.0000000,0.0000040,0.0000000,0.0000000,0.0000000,0.0000198,0.0000000,0.0000000,0.0000040,0.0000000,0.0000000,0.0000000,0.0000198,0.0000000,0.0000000,0.0000040
92.1025960,1.0000000,,-0.9746947,-0.2235234,-0.0000770,0.0027504,0.0016108,0.0008625,0.0012641,,,,0.9740785,-4.2225056,-11.5935087,0.0000000,0.0000000,0.0000000,0.0200000,0.0001994,0.0000000,0.0000000,0.0000199,0.0000000,0.0000000,0.0000000,0.0001994,0.0000000,0.0000000,0.0000199,0.0000000,0.0000000,0.0000000,0.0001994,0.0000000,0.0000000,0.0000199,0.0000199,0.0000000,0.0000000,0.0000040,0.0000000,0.0000000,0.0000000,0.0000199,0.0000000,0.0000000,0.0000040,0.0000000,0.0000000,0.0000000,0.0000199,0.0000000,0.0000000,0.0000040
92.1158100,1.3998500,,-0.9746947,-0.2235233,-0.0000720,0.0027574,-0.0003619,-0.0020101,0.0003803,,,,0.9740785,-4.2225056,-11.5935087,0.0000000,0.0000000,0.0000000,0.0279970,0.0002005,0.0000000,0.0000000,0.0000200,0.0000000,0.0000000,0.0000000,0.0002005,0.0000000,0.0000000,0.0000200,0.0000000,0.0000000,0.0000000,0.0002005,0.0000000,0.0000000,0.0000200,0.0000200,0.0000000,0.0000000,0.0000040,0.0000000,0.0000000,0.0000000,0.0000200,0.0000000,0.0000000,0.0000040,0.0000000,0.0000000,0.0000000,0.0000200,0.0000000,0.0000000,0.0000040
92.1358790,1.0001000,,-0.9746947,-0.2235233,-0.0000630,0.0027332,-0.0059640,0.0016271,-0.0037161,,,,0.9740785,-4.2225056,-11.5935087,0.0000000,0.0000000,0.0000000,0.0200020,0.0002013,0.0000000,0.0000000,0.0000201,0.0000000,0.0000000,0.0000000,0.0002013,0.0000000,0.0000000,0.0000201,0.0000000,0.0000000,0.0000000,0.0002013,0.0000000,0.0000000,0.0000201,0.0000201,0.0000000,0.0000000,0.0000040,0.0000000,0.0000000,0.0000000,0.0000201,0.0000000,0.0000000,0.0000040,0.0000000,0.0000000,0.0000000,0.0000201,0.0000000,0.0000000,0.0000040
92.1556730,1.0006001,,-0.9746948,-0.2235234,-0.0000667,0.0027120,-0.0053548,0.0024462,-0.0028346,,,,0.9740785,-4.2225056,-11.5935087,0.0000000,0.0000000,0.0000000,0.0200120,0.0002021,0.0000000,0.0000000,0.0000202,0.0000000,0.0000000,0.0000000,0.0002021,0.0000000,0.0000000,0.0000202,0.0000000,0.0000000,0.0000000,0.0002021,0.0000000,0.0000000,0.0000202,0.0000202,0.0000000,0.0000000,0.0000040,0.0000000,0.0000000,0.0000000,0.0000202,0.0000000,0.0000000,0.0000040,0.0000000,0.0000000,0.0000000,0.0000202,0.0000000,0.0000000,0.0000040
92.1768280,1.0495000,,-0.9746947,-0.2235234,-0.0000909,0.0027127,0.0031973,0.0033593,-0.0026380,,,,0.9740785,-4.2225056,-11.5935087,0.0000000,0.0000000,0.0000000,0.0209900,0.0002030,0.0000000,0.0000000,0.0000203,0.0000000,0.0000000,0.0000000,0.0002030,0.0000000,0.0000000,0.0000203,0.0000000,0.0000000,0.0000000,0.0002030,0.0000000,0.0000000,0.0000203,0.0000203,0.0000000,0.0000000,0.0000040,0.0000000,0.0000000,0.0000000,0.0000203,0.0000000,0.0000000,0.0000040,0.0000000,0.0000000,0.0000000,0.0000203,0.0000000,0.0000000,0.0000040
92.1928000,,1.0200200,-0.9746947,-0.2235234,-0.0000909,0.0027127,,,,0.0000000,0.0000000,0.0000000,0.9740785,-4.2225056,-11.5935087,0.0000000,0.0000000,0.0000000,0.1020020,0.0001989,0.0000000,0.0000000,0.0000199,0.0000000,0.0000000,0.0000000,0.0001989,0.0000000,0.0000000,0.0000199,0.0000000,0.0000000,0.0000000,0.0001989,0.0000000,0.0000000,0.0000199,0.0000199,0.0000000,0.0000000,0.0000040,0.0000000,0.0000000,0.0000000,0.0000199,0.0000000,0.0000000,0.0000040,0.0000000,0.0000000,0.0000000,0.0000199,0.0000000,0.0000000,0.0000040
92.2066260,1.1000000,,-0.9746947,-0.2235235,-0.0001078,0.0027151,0.0060008,0.0028393,-0.0025397,,,,0.9740785,-4.2225056,-11.5935087,0.0000000,0.0000000,0.0000000,0.0220000,0.0001998,0.0000000,0.0000000,0.0000200,0.0000000,0.0000000,0.0000000,0.0001998,0.0000000,0.0000000,0.0000200,0.0000000,0.0000000,0.0000000,0.0001998,0.0000000,0.0000000,0.0000200,0.0000200,0.0000000,0.0000000,0.0000040,0.0000000,0.0000000,0.0000000,0.0000200,0.0000000,0.0000000,0.0000040,0.0000000,0.0000000,0.0000000,0.0000200,0.0000000,0.0000000,0.0000040
92.2197510,1.0500000,,-0.9746946,-0.2235235,-0.0001187,0.0027609,0.0020086,-0.0168680,-0.0061603,,,,0.9740785,-4.2225056,-11.5935087,0.0000000,0.0000000,0.0000000,0.0210000,0.0002007,0.0000000,0.0000000,0.0000200,0.0000000,0.0000000,0.0000000,0.0002007,0.0000000,0.0000000,0.0000200,0.0000000,0.0000000,0.0000000,0.0002007,0.0000000,0.0000000,0.0000200,0.0000200,0.0000000,0.0000000,0.0000040,0.0000000,0.0000000,0.0000000,0.0000200,0.0000000,0.0000000,0.0000040,0.0000000,0.0000000,0.0000000,0.0000200,0.0000000,0.0000000,0.0000040
92.2396320,1.0004500,,-0.9746944,-0.2235235,-0.0001384,0.0028197,0.0014315,-0.0088307,-0.0099237,,,,0.9740785,-4.2225056,-11.5935087,0.0000000,0.0000000,0.0000000,0.0200090,0.0002015,0.0000000,0.0000000,0.0000201,0.0000000,0.0000000,0.0000000,0.0002015,0.0000000,0.0000000,0.0000201,0.0000000,0.0000000,0.0000000,0.0002015,0.0000000,0.0000000,0.0000201,0.0000201,0.0000000,0.0000000,0.0000040,0.0000000,0.0000000,0.0000000,0.0000201,0.0000000,0.0000000,0.0000040,0.0000000,0.0000000,0.0000000,0.0000201,0.0000000,0.0000000,0.0000040
92.2612040,0.9996500,,-0.9746671,-0.2236351,-0.0000442,0.0033227,0.0004030,0.0054342,-0.0315808,,,,0.9740785,-4.2225056,-11.5935087,0.0000000,0.0000000,0.0000000,0.0199930,0.0002023,0.0000000,0.0000000,0.0000202,0.0000000,0.0000000,0.0000000,0.0002023,0.0000000,0.0000000,0.0000202,0.0000000,0.0000000,0.0000000,0.0002023,0.0000000,0.0000000,0.0000202,0.0000202,0.0000000,0.0000000,0.0000040,0.0000000,0.0000000,0.0000000,0.0000202,0.0000000,0.0000000,0.0000040,0.0000000,0.0000000,0.0000000,0.0000202,0.0000000,0.0000000,0.0000040
92.2797700,1.0005500,,-0.9746429,-0.2237346,0.0000641,0.0037108,-0.0198333,0.0026027,-0.0153174,,,,0.9740785,-4.2225056,-11.5935087,0.0000000,0.0000000,0.0000000,0.0200110,0.0002031,0.0000000,0.0000000,0.0000203,0.0000000,0.0000000,0.0000000,0.0002031,0.0000000,0.0000000,0.0000203,0.0000000,0.0000000,0.0000000,0.0002031,0.0000000,0.0000000,0.0000203,0.0000203,0.0000000,0.0000000,0.0000040,0.0000000,0.0000000,0.0000000,0.0000203,0.0000000,0.0000000,0.0000040,0.0000000,0.0000000,0.0000000,0.0000203,0.0000000,0.0000000,0.0000040
92.2958470,,1.0000700,-0.9746429,-0.2237346,0.0000641,0.0037108,,,,0.0000000,0.0000000,0.0000000,0.9740785,-4.2225056,-11.5935087,0.0000000,0.0000000,0.0000000,0.1000070,0.0001990,0.0000000,0.0000000,0.0000199,0.0000000,0.0000000,0.0000000,0.0001990,0.0000000,0.0000000,0.0000199,0.0000000,0.0000000,0.0000000,0.0001990,0.0000000,0.0000000,0.0000199,0.0000199,0.0000000,0.0000000,0.0000040,0.0000000,0.0000000,0.0000000,0.0000199,0.0000000,0.0000000,0.0000040,0.0000000,0.0000000,0.0000000,0.0000199,0.0000000,0.0000000,0.0000040
92.3094480,1.0000000,,-0.9746283,-0.2237932,0.0001010,0.0039992,-0.0073227,-0.0047412,0.0077069,,,,0.9740785,-4.2225056,-11.5935087,0.0000000,0.0000000,0.0000000,0.0200000,0.0001998,0.0000000,0.0000000,0.0000200,0.0000000,0.0000000,0.0000000,0.0001998,0.0000000,0.0000000,0.0000200,0.0000000,0.0000000,0.0000000,0.0001998,0.0000000,0.0000000,0.0000200,0.0000200,0.0000000,0.0000000,0.0000040,0.0000000,0.0000000,0.0000000,0.0000200,0.0000000,0.0000000,0.0000040,0.0000000,0.0000000,0.0000000,0.0000200,0.0000000,0.0000000,0.0000040
92.3229400,1.1492000,,-0.9746225,-0.2238179,0.0001449,0.0040320,0.0000084,-0.0161874,-0.0293649,,,,0.9740785,-4.2225056,-11.5935087,0.0000000,0.0000000,0.0000000,0.0229840,0.0002007,0.0000000,0.0000000,0.0000201,0.0000000,0.0000000,0.0000000,0.0002007,0.0000000,0.0000000,0.0000201,0.0000000,0.0000000,0.0000000,0.0002007,0.0000000,0.0000000,0.0000201,0.0000201,0.0000000,0.0000000,0.0000040,0.0000000,0.0000000,0.0000000,0.0000201,0.0000000,0.0000000,0.0000040,0.0000000,0.0000000,0.0000000,0.0000201,0.0000000,0.0000000,0.0000040
92.3427430,1.0001000,,-0.9746161,-0.2238432,0.0001852,0.0041928,-0.0317493,-0.0233296,-0.0376469,,,,0.9740785,-4.2225056,-11.5935087,0.0000000,0.0000000,0.0000000,0.0200020,0.0002015,0.0000000,0.0000000,0.0000201,0.0000000,0.0000000,0.0000000,0.0002015,0.0000000,0.0000000,0.0000201,0.0000000,0.0000000,0.0000000,0.0002015,0.0000000,0.0000000,0.0000201,0.0000201,0.0000000,0.0000000,0.0000040,0.0000000,0.0000000,0.0000000,0.0000201,0.0000000,0.0000000,0.0000040,0.0000000,0.0000000,0.0000000,0.0000201,0.0000000,0.0000000,0.0000040
92.3625670,1.0008500,,-0.9746218,-0.2238180,0.0002338,0.0042160,-0.0014093,-0.0338358,0.0456144,,,,0.9740785,-4.2225056,-11.5935087,0.0000000,0.0000000,0.0000000,0.0200170,0.0002024,0.0000000,0.0000000,0.0000202,0.0000000,0.0000000,0.0000000,0.0002024,0.0000000,0.0000000,0.0000202,0.0000000,0.0000000,0.0000000,0.0002024,0.0000000,0.0000000,0.0000202,0.0000202,0.0000000,0.0000000,0.0000040,0.0000000,0.0000000,0.0000000,0.0000202,0.0000000,0.0000000,0.0000040,0.0000000,0.0000000,0.0000000,0.0000202,0.0000000,0.0000000,0.0000040
92.3837660,1.0493001,,-0.9746038,-0.2238977,0.0002428,0.0041492,-0.0914563,-0.1027257,-0.0311631,,,,0.9740506,-4.2224941,-11.5935020,-0.0026662,0.0010967,0.0006690,0.0209860,0.0002032,0.0000000,0.0000000,0.0000203,0.0000000,0.0000000,0.0000000,0.0002032,0.0000000,0.0000000,0.0000203,0.0000000,0.0000000,0.0000000,0.0002032,0.0000000,0.0000000,0.0000203,0.0000203,0.0000000,0.0000000,0.0000040,0.0000000,0.0000000,0.0000000,0.0000203,0.0000000,0.0000000,0.0000040,0.0000000,0.0000000,0.0000000,0.0000203,0.0000000,0.0000000,0.0000040
92.3999510,,0.9999700,-0.9746038,-0.2238977,0.0002428,0.0041492,,,,-0.0699885,-0.0339484,-0.0001077,0.9726573,-4.2231703,-11.5935040,-0.0028054,0.0010292,0.0006688,0.0999970,0.0001992,0.0000000,0.0000000,0.0000199,0.0000000,0.0000000,0.0000000,0.0001992,0.0000000,0.0000000,0.0000199,0.0000000,0.0000000,0.0000000,0.0001992,0.0000000,0.0000000,0.0000199,0.0000199,0.0000000,0.0000000,0.0000040,0.0000000,0.0000000,0.0000000,0.0000199,0.0000000,0.0000000,0.0000040,0.0000000,0.0000000,0.0000000,0.0000199,0.0000000,0.0000000,0.0000040
92.4136750,1.0998001,,-0.9745806,-0.2239960,0.0000756,0.0042932,0.0112939,-0.0485171,-0.0187707,,,,0.9726573,-4.2231703,-11.5935040,0.0000000,0.0000000,0.0000000,0.0219960,0.0002000,0.0000000,0.0000000,0.0000200,0.0000000,0.0000000,0.0000000,0.0002000,0.0000000,0.0000000,0.0000200,0.0000000,0.0000000,0.0000000,0.0002000,0.0000000,0.0000000,0.0000200,0.0000200,0.0000000,0.0000000,0.0000040,0.0000000,0.0000000,0.0000000,0.0000200,0.0000000,0.0000000,0.0000040,0.0000000,0.0000000,0.0000000,0.0000200,0.0000000,0.0000000,0.0000040
92.4268140,1.0500000,,-0.9745429,-0.2241436,0.0000576,0.0050215,0.0420010,-0.2203035,0.0225666,,,,0.9726444,-4.2231226,-11.5935087,-0.0012289,0.0045512,-0.0004266,0.0210000,0.0002009,0.0000000,0.0000000,0.0000201,0.0000000,0.0000000,0.0000000,0.0002009,0.0000000,0.0000000,0.0000201,0.0000000,0.0000000,0.0000000,0.0002009,0.0000000,0.0000000,0.0000201,0.0000201,0.0000000,0.0000000,0.0000040,0.0000000,0.0000000,0.0000000,0.0000201,0.0000000,0.0000000,0.0000040,0.0000000,0.0000000,0.0000000,0.0000201,0.0000000,0.0000000,0.0000040
92.4467390,1.0005500,,-0.9745176,-0.2242406,0.0003540,0.0055414,0.0571410,-0.1145920,-0.0717550,,,,0.9726444,-4.2231226,-11.5935087,0.0000000,0.0000000,0.0000000,0.0200110,0.0002017,0.0000000,0.0000000,0.0000201,0.0000000,0.0000000,0.0000000,0.0002017,0.0000000,0.0000000,0.0000201,0.0000000,0.0000000,0.0000000,0.0002017,0.0000000,0.0000000,0.0000201,0.0000201,0.0000000,0.0000000,0.0000040,0.0000000,0.0000000,0.0000000,0.0000201,0.0000000,0.0000000,0.0000040,0.0000000,0.0000000,0.0000000,0.0000201,0.0000000,0.0000000,0.0000040
92.4676360,1.0495499,,-0.9745011,-0.2243170,0.0002196,0.0053992,0.0330947,-0.1732476,-0.0803340,,,,0.9726343,-4.2230854,-11.5934906,-0.0009603,0.0035566,0.0017262,0.0209910,0.0002025,0.0000000,0.0000000,0.0000202,0.0000000,0.0000000,0.0000000,0.0002025,0.0000000,0.0000000,0.0000202,0.0000000,0.0000000,0.0000000,0.0002025,0.0000000,0.0000000,0.0000202,0.0000202,0.0000000,0.0000000,0.0000040,0.0000000,0.0000000,0.0000000,0.0000202,0.0000000,0.0000000,0.0000040,0.0000000,0.0000000,0.0000000,0.0000202,0.0000000,0.0000000,0.0000040
92.4889840,1.0499500,,-0.9745231,-0.2242174,0.0001965,0.0055650,-0.0016564,-0.0087277,0.0308474,,,,0.9726343,-4.2230854,-11.5934906,0.0000000,0.0000000,0.0000000,0.0209990,0.0002034,0.0000000,0.0000000,0.0000203,0.0000000,0.0000000,0.0000000,0.0002034,0.0000000,0.0000000,0.0000203,0.0000000,0.0000000,0.0000000,0.0002034,0.0000000,0.0000000,0.0000203,0.0000203,0.0000000,0.0000000,0.0000040,0.0000000,0.0000000,0.0000000,0.0000203,0.0000000,0.0000000,0.0000040,0.0000000,0.0000000,0.0000000,0.0000203,0.0000000,0.0000000,0.0000040
92.5057890,,1.0199499,-0.9745231,-0.2242174,0.0001965,0.0055650,,,,-0.3092506,-0.1502539,-0.0007263,0.9664710,-4.2260818,-11.5935049,-0.0006157,-0.0002993,-0.0000015,0.1019950,0.0001993,0.0000000,0.0000000,0.0000199,0.0000000,0.0000000,0.0000000,0.0001993,0.0000000,0.0000000,0.0000199,0.0000000,0.0000000,0.0000000,0.0001993,0.0000000,0.0000000,0.0000199,0.0000199,0.0000000,0.0000000,0.0000040,0.0000000,0.0000000,0.0000000,0.0000199,0.0000000,0.0000000,0.0000040,0.0000000,0.0000000,0.0000000,0.0000199,0.0000000,0.0000000,0.0000040
92.5186470,1.1000500,,-0.9745389,-0.2241466,0.0000222,0.0056576,0.0516926,-0.1164625,0.0617799,,,,0.9664563,-4.2260575,-11.5935192,-0.0007156,0.0025172,-0.0013295,0.0220010,0.0002002,0.0000000,0.0000000,0.0000200,0.0000000,0.0000000,0.0000000,0.0002002,0.0000000,0.0000000,0.0000200,0.0000000,0.0000000,0.0000000,0.0002002,0.0000000,0.0000000,0.0000200,0.0000200,0.0000000,0.0000000,0.0000040,0.0000000,0.0000000,0.0000000,0.0000200,0.0000000,0.0000000,0.0000040,0.0000000,0.0000000,0.0000000,0.0000200,0.0000000,0.0000000,0.0000040
92.5318090,1.0498999,,-0.9745495,-0.2240887,0.0000920,0.0060966,-0.0025580,-0.2305335,0.2015061,,,,0.9664184,-4.2259588,-11.5935907,-0.0028905,0.0068980,-0.0055028,0.0209980,0.0002010,0.0000000,0.0000000,0.0000201,0.0000000,0.0000000,0.0000000,0.0002010,0.0000000,0.0000000,0.0000201,0.0000000,0.0000000,0.0000000,0.0002010,0.0000000,0.0000000,0.0000201,0.0000201,0.0000000,0.0000000,0.0000040,0.0000000,0.0000000,0.0000000,0.0000201,0.0000000,0.0000000,0.0000040,0.0000000,0.0000000,0.0000000,0.0000201,0.0000000,0.0000000,0.0000040
92.5517230,1.0006500,,-0.9745660,-0.2240176,0.0000186,0.0060951,-0.0007373,-0.0573368,0.0880272,,,,0.9663554,-4.2258105,-11.5937185,-0.0034097,0.0079447,-0.0072508,0.0200130,0.0002018,0.0000000,0.0000000,0.0000202,0.0000000,0.0000000,0.0000000,0.0002018,0.0000000,0.0000000,0.0000202,0.0000000,0.0000000,0.0000000,0.0002018,0.0000000,0.0000000,0.0000202,0.0000202,0.0000000,0.0000000,0.0000040,0.0000000,0.0000000,0.0000000,0.0000202,0.0000000,0.0000000,0.0000040,0.0000000,0.0000000,0.0000000,0.0000202,0.0000000,0.0000000,0.0000040
92.5725060,1.0495000,,-0.9745755,-0.2239605,0.0000790,0.0066279,-0.0323511,-0.1359148,0.0158917,,,,0.9662643,-4.2256198,-11.5938740,-0.0052670,0.0102190,-0.0075493,0.0209900,0.0002027,0.0000000,0.0000000,0.0000202,0.0000000,0.0000000,0.0000000,0.0002027,0.0000000,0.0000000,0.0000202,0.0000000,0.0000000,0.0000000,0.0002027,0.0000000,0.0000000,0.0000202,0.0000202,0.0000000,0.0000000,0.0000040,0.0000000,0.0000000,0.0000000,0.0000202,0.0000000,0.0000000,0.0000040,0.0000000,0.0000000,0.0000000,0.0000202,0.0000000,0.0000000,0.0000040
92.5927010,,1.0000000,-0.9746104,-0.2238130,0.0001303,0.0064730,,,,-0.1671501,-0.0811026,-0.0005230,0.9629479,-4.2272401,-11.5938768,-0.0055983,0.0100571,-0.0075496,0.1000000,0.0001987,0.0000000,0.0000000,0.0000198,0.0000000,0.0000000,0.0000000,0.0001987,0.0000000,0.0000000,0.0000198,0.0000000,0.0000000,0.0000000,0.0001987,0.0000000,0.0000000,0.0000198,0.0000198,0.0000000,0.0000000,0.0000040,0.0000000,0.0000000,0.0000000,0.0000198,0.0000000,0.0000000,0.0000040,0.0000000,0.0000000,0.0000000,0.0000198,0.0000000,0.0000000,0.0000040
92.6067690,1.0999500,,-0.9746104,-0.2238130,0.0001303,0.0064730,-0.0181439,-0.0727410,-0.0362818,,,,0.9628131,-4.2270050,-11.5940342,-0.0066531,0.0113128,-0.0067322,0.0219990,0.0001995,0.0000000,0.0000000,0.0000199,0.0000000,0.0000000,0.0000000,0.0001995,0.0000000,0.0000000,0.0000199,0.0000000,0.0000000,0.0000000,0.0001995,0.0000000,0.0000000,0.0000199,0.0000199,0.0000000,0.0000000,0.0000040,0.0000000,0.0000000,0.0000000,0.0000199,0.0000000,0.0000000,0.0000040,0.0000000,0.0000000,0.0000000,0.0000199,0.0000000,0.0000000,0.0000040
92.6198360,1.2498500,,-0.9745813,-0.2239475,0.0001744,0.0062048,-0.0048148,-0.1955731,-0.0579663,,,,0.9626189,-4.2266684,-11.5941839,-0.0088908,0.0156408,-0.0052242,0.0249970,0.0002005,0.0000000,0.0000000,0.0000200,0.0000000,0.0000000,0.0000000,0.0002005,0.0000000,0.0000000,0.0000200,0.0000000,0.0000000,0.0000000,0.0002005,0.0000000,0.0000000,0.0000200,0.0000200,0.0000000,0.0000000,0.0000040,0.0000000,0.0000000,0.0000000,0.0000200,0.0000000,0.0000000,0.0000040,0.0000000,0.0000000,0.0000000,0.0000200,0.0000000,0.0000000,0.0000040
92.6398220,1.0002000,,-0.9745952,-0.2238977,0.0002102,0.0058021,0.0144536,-0.0414435,-0.0417014,,,,0.9626189,-4.2266684,-11.5941839,0.0000000,0.0000000,0.0000000,0.0200040,0.0002013,0.0000000,0.0000000,0.0000201,0.0000000,0.0000000,0.0000000,0.0002013,0.0000000,0.0000000,0.0000201,0.0000000,0.0000000,0.0000000,0.0002013,0.0000000,0.0000000,0.0000201,0.0000201,0.0000000,0.0000000,0.0000040,0.0000000,0.0000000,0.0000000,0.0000201,0.0000000,0.0000000,0.0000040,0.0000000,0.0000000,0.0000000,0.0000201,0.0000000,0.0000000,0.0000040
92.6599050,1.0005500,,-0.9745793,-0.2239783,-0.0000730,0.0053356,-0.0181333,0.0020139,-0.1573482,,,,0.9626158,-4.2266707,-11.5941525,-0.0003018,-0.0002275,0.0031472,0.0200110,0.0002021,0.0000000,0.0000000,0.0000202,0.0000000,0.0000000,0.0000000,0.0002021,0.0000000,0.0000000,0.0000202,0.0000000,0.0000000,0.0000000,0.0002021,0.0000000,0.0000000,0.0000202,0.0000202,0.0000000,0.0000000,0.0000040,0.0000000,0.0000000,0.0000000,0.0000202,0.0000000,0.0000000,0.0000040,0.0000000,0.0000000,0.0000000,0.0000202,0.0000000,0.0000000,0.0000040
92.6809370,1.0494001,,-0.9745964,-0.2239130,-0.0001798,0.0049383,0.0414018,0.1999510,-0.0867460,,,,0.9626369,-4.2267113,-11.5940676,0.0023150,-0.0036415,0.0049299,0.0209880,0.0002030,0.0000000,0.0000000,0.0000203,0.0000000,0.0000000,0.0000000,0.0002030,0.0000000,0.0000000,0.0000203,0.0000000,0.0000000,0.0000000,0.0002030,0.0000000,0.0000000,0.0000203,0.0000203,0.0000000,0.0000000,0.0000040,0.0000000,0.0000000,0.0000000,0.0000203,0.0000000,0.0000000,0.0000040,0.0000000,0.0000000,0.0000000,0.0000203,0.0000000,0.0000000,0.0000040
92.6967800,,1.0000100,-0.9745964,-0.2239130,-0.0001798,0.0049383,,,,-0.1539204,-0.0833105,-0.0005222,0.9595811,-4.2283792,-11.5940742,0.0020097,-0.0038081,0.0049292,0.1000010,0.0001989,0.0000000,0.0000000,0.0000199,0.0000000,0.0000000,0.0000000,0.0001989,0.0000000,0.0000000,0.0000199,0.0000000,0.0000000,0.0000000,0.0001989,0.0000000,0.0000000,0.0000199,0.0000199,0.0000000,0.0000000,0.0000040,0.0000000,0.0000000,0.0000000,0.0000199,0.0000000,0.0000000,0.0000040,0.0000000,0.0000000,0.0000000,0.0000199,0.0000000,0.0000000,0.0000040
92.7099010,1.0999000,,-0.9745789,-0.2240004,-0.0001159,0.0043830,0.0149102,-0.0274049,-0.1149138,,,,0.9596257,-4.2284555,-11.5939379,0.0020460,-0.0031443,0.0074628,0.0219980,0.0001998,0.0000000,0.0000000,0.0000200,0.0000000,0.0000000,0.0000000,0.0001998,0.0000000,0.0000000,0.0000200,0.0000000,0.0000000,0.0000000,0.0001998,0.0000000,0.0000000,0.0000200,0.0000200,0.0000000,0.0000000,0.0000040,0.0000000,0.0000000,0.0000000,0.0000200,0.0000000,0.0000000,0.0000040,0.0000000,0.0000000,0.0000000,0.0000200,0.0000000,0.0000000,0.0000040
92.7228500,0.9999500,,-0.9745606,-0.2240676,0.0002423,0.0049534,-0.0083301,0.1695556,-0.0897140,,,,0.9596800,-4.2285500,-11.5937710,0.0033819,-0.0062845,0.0092235,0.0199990,0.0002006,0.0000000,0.0000000,0.0000200,0.0000000,0.0000000,0.0000000,0.0002006,0.0000000,0.0000000,0.0000200,0.0000000,0.0000000,0.0000000,0.0002006,0.0000000,0.0000000,0.0000200,0.0000200,0.0000000,0.0000000,0.0000040,0.0000000,0.0000000,0.0000000,0.0000200,0.0000000,0.0000000,0.0000040,0.0000000,0.0000000,0.0000000,0.0000200,0.0000000,0.0000000,0.0000040
92.7428650,1.0001000,,-0.9745468,-0.2241327,0.0001380,0.0047595,-0.0237039,0.1004715,-0.0810051,,,,0.9596800,-4.2285500,-11.5937710,0.0000000,0.0000000,0.0000000,0.0200020,0.0002014,0.0000000,0.0000000,0.0000201,0.0000000,0.0000000,0.0000000,0.0002014,0.0000000,0.0000000,0.0000201,0.0000000,0.0000000,0.0000000,0.0002014,0.0000000,0.0000000,0.0000201,0.0000201,0.0000000,0.0000000,0.0000040,0.0000000,0.0000000,0.0000000,0.0000201,0.0000000,0.0000000,0.0000040,0.0000000,0.0000000,0.0000000,0.0000201,0.0000000,0.0000000,0.0000040
92.7628770,1.0005001,,-0.9745308,-0.2241822,0.0003565,0.0055713,-0.0334737,-0.0476570,-0.0781383,,,,0.9596698,-4.2285442,-11.5937557,-0.0010142,0.0005483,0.0015727,0.0200100,0.0002022,0.0000000,0.0000000,0.0000202,0.0000000,0.0000000,0.0000000,0.0002022,0.0000000,0.0000000,0.0000202,0.0000000,0.0000000,0.0000000,0.0002022,0.0000000,0.0000000,0.0000202,0.0000202,0.0000000,0.0000000,0.0000040,0.0000000,0.0000000,0.0000000,0.0000202,0.0000000,0.0000000,0.0000040,0.0000000,0.0000000,0.0000000,0.0000202,0.0000000,0.0000000,0.0000040
92.7837330,1.0495000,,-0.9745448,-0.2241262,0.0001686,0.0054333,0.0011083,-0.0247746,-0.0390921,,,,0.9596698,-4.2285442,-11.5937557,0.0000000,0.0000000,0.0000000,0.0209900,0.0002031,0.0000000,0.0000000,0.0000203,0.0000000,0.0000000,0.0000000,0.0002031,0.0000000,0.0000000,0.0000203,0.0000000,0.0000000,0.0000000,0.0002031,0.0000000,0.0000000,0.0000203,0.0000203,0.0000000,0.0000000,0.0000040,0.0000000,0.0000000,0.0000000,0.0000203,0.0000000,0.0000000,0.0000040,0.0000000,0.0000000,0.0000000,0.0000203,0.0000000,0.0000000,0.0000040
92.7997280,,1.0001400,-0.9745448,-0.2241262,0.0001686,0.0054333,,,,-0.3111581,-0.1685756,-0.0009125,0.9534752,-4.2318959,-11.5937805,-0.0006188,-0.0003348,-0.0000024,0.1000140,0.0001990,0.0000000,0.0000000,0.0000199,0.0000000,0.0000000,0.0000000,0.0001990,0.0000000,0.0000000,0.0000199,0.0000000,0.0000000,0.0000000,0.0001990,0.0000000,0.0000000,0.0000199,0.0000199,0.0000000,0.0000000,0.0000040,0.0000000,0.0000000,0.0000000,0.0000199,0.0000000,0.0000000,0.0000040,0.0000000,0.0000000,0.0000000,0.0000199,0.0000000,0.0000000,0.0000040
92.8135120,1.1001000,,-0.9745395,-0.2241386,0.0002313,0.0058423,0.0170184,-0.1090059,0.0341268,,,,0.9534752,-4.2318959,-11.5937805,0.0000000,0.0000000,0.0000000,0.0220020,0.0001999,0.0000000,0.0000000,0.0000200,0.0000000,0.0000000,0.0000000,0.0001999,0.0000000,0.0000000,0.0000200,0.0000000,0.0000000,0.0000000,0.0001999,0.0000000,0.0000000,0.0000200,0.0000200,0.0000000,0.0000000,0.0000040,0.0000000,0.0000000,0.0000000,0.0000200,0.0000000,0.0000000,0.0000040,0.0000000,0.0000000,0.0000000,0.0000200,0.0000000,0.0000000,0.0000040
92.8265490,1.0505501,,-0.9745544,-0.2240798,0.0001619,0.0056310,-0.0123877,0.0653090,0.0446284,,,,0.9534752,-4.2318959,-11.5937805,0.0000000,0.0000000,0.0000000,0.0210110,0.0002007,0.0000000,0.0000000,0.0000201,0.0000000,0.0000000,0.0000000,0.0002007,0.0000000,0.0000000,0.0000201,0.0000000,0.0000000,0.0000000,0.0002007,0.0000000,0.0000000,0.0000201,0.0000201,0.0000000,0.0000000,0.0000040,0.0000000,0.0000000,0.0000000,0.0000201,0.0000000,0.0000000,0.0000040,0.0000000,0.0000000,0.0000000,0.0000201,0.0000000,0.0000000,0.0000040
92.8468460,0.9996500,,-0.9745435,-0.2241274,0.0000850,0.0056504,-0.0589664,0.0547874,0.0383970,,,,0.9534752,-4.2318959,-11.5937805,0.0000000,0.0000000,0.0000000,0.0199930,0.0002015,0.0000000,0.0000000,0.0000201,0.0000000,0.0000000,0.0000000,0.0002015,0.0000000,0.0000000,0.0000201,0.0000000,0.0000000,0.0000000,0.0002015,0.0000000,0.0000000,0.0000201,0.0000201,0.0000000,0.0000000,0.0000040,0.0000000,0.0000000,0.0000000,0.0000201,0.0000000,0.0000000,0.0000040,0.0000000,0.0000000,0.0000000,0.0000201,0.0000000,0.0000000,0.0000040
92.8663000,0.9997500,,-0.9745492,-0.2241016,0.0001866,0.0056847,-0.0705217,0.1929439,0.0120879,,,,0.9534752,-4.2318959,-11.5937805,0.0000000,0.0000000,0.0000000,0.0199950,0.0002023,0.0000000,0.0000000,0.0000202,0.0000000,0.0000000,0.0000000,0.0002023,0.0000000,0.0000000,0.0000202,0.0000000,0.0000000,0.0000000,0.0002023,0.0000000,0.0000000,0.0000202,0.0000202,0.0000000,0.0000000,0.0000040,0.0000000,0.0000000,0.0000000,0.0000202,0.0000000,0.0000000,0.0000040,0.0000000,0.0000000,0.0000000,0.0000202,0.0000000,0.0000000,0.0000040
92.8877270,1.0500000,,-0.9745304,-0.2241797,0.0002904,0.0058186,-0.0645272,0.0779478,0.0023513,,,,0.9534752,-4.2318959,-11.5937805,0.0000000,0.0000000,0.0000000,0.0210000,0.0002032,0.0000000,0.0000000,0.0000203,0.0000000,0.0000000,0.0000000,0.0002032,0.0000000,0.0000000,0.0000203,0.0000000,0.0000000,0.0000000,0.0002032,0.0000000,0.0000000,0.0000203,0.0000203,0.0000000,0.0000000,0.0000040,0.0000000,0.0000000,0.0000000,0.0000203,0.0000000,0.0000000,0.0000040,0.0000000,0.0000000,0.0000000,0.0000203,0.0000000,0.0000000,0.0000040
92.9038410,,0.9998700,-0.9745304,-0.2241797,0.0002904,0.0058186,,,,-0.1635530,-0.0711510,-0.0002784,0.9502181,-4.2333131,-11.5937862,-0.0003254,-0.0001416,-0.0000006,0.0999870,0.0001991,0.0000000,0.0000000,0.0000199,0.0000000,0.0000000,0.0000000,0.0001991,0.0000000,0.0000000,0.0000199,0.0000000,0.0000000,0.0000000,0.0001991,0.0000000,0.0000000,0.0000199,0.0000199,0.0000000,0.0000000,0.0000040,0.0000000,0.0000000,0.0000000,0.0000199,0.0000000,0.0000000,0.0000040,0.0000000,0.0000000,0.0000000,0.0000199,0.0000000,0.0000000,0.0000040
92.9175270,0.9999000,,-0.9745404,-0.2241172,0.0004823,0.0064730,-0.0310048,0.0968581,0.0057686,,,,0.9502181,-4.2333131,-11.5937862,0.0000000,0.0000000,0.0000000,0.0199980,0.0001999,0.0000000,0.0000000,0.0000200,0.0000000,0.0000000,0.0000000,0.0001999,0.0000000,0.0000000,0.0000200,0.0000000,0.0000000,0.0000000,0.0001999,0.0000000,0.0000000,0.0000200,0.0000200,0.0000000,0.0000000,0.0000040,0.0000000,0.0000000,0.0000000,0.0000200,0.0000000,0.0000000,0.0000040,0.0000000,0.0000000,0.0000000,0.0000200,0.0000000,0.0000000,0.0000040
92.9305320,1.1505500,,-0.9745588,-0.2240502,0.0004818,0.0059861,-0.0108866,0.1234794,-0.0059277,,,,0.9502181,-4.2333131,-11.5937862,0.0000000,0.0000000,0.0000000,0.0230110,0.0002009,0.0000000,0.0000000,0.0000201,0.0000000,0.0000000,0.0000000,0.0002009,0.0000000,0.0000000,0.0000201,0.0000000,0.0000000,0.0000000,0.0002009,0.0000000,0.0000000,0.0000201,0.0000201,0.0000000,0.0000000,0.0000040,0.0000000,0.0000000,0.0000000,0.0000201,0.0000000,0.0000000,0.0000040,0.0000000,0.0000000,0.0000000,0.0000201,0.0000000,0.0000000,0.0000040
92.9507370,0.9995500,,-0.9745665,-0.2239999,0.0006637,0.0065725,0.0142863,0.2312649,-0.0003241,,,,0.9502181,-4.2333131,-11.5937862,0.0000000,0.0000000,0.0000000,0.0199910,0.0002017,0.0000000,0.0000000,0.0000201,0.0000000,0.0000000,0.0000000,0.0002017,0.0000000,0.0000000,0.0000201,0.0000000,0.0000000,0.0000000,0.0002017,0.0000000,0.0000000,0.0000201,0.0000201,0.0000000,0.0000000,0.0000040,0.0000000,0.0000000,0.0000000,0.0000201,0.0000000,0.0000000,0.0000040,0.0000000,0.0000000,0.0000000,0.0000201,0.0000000,0.0000000,0.0000040
92.9709300,1.0006500,,-0.9745775,-0.2239507,0.0006281,0.0066321,0.0311300,0.3771757,-0.0077685,,,,0.9502566,-4.2333784,-11.5937853,0.0038561,-0.0065206,0.0000568,0.0200130,0.0002025,0.0000000,0.0000000,0.0000202,0.0000000,0.0000000,0.0000000,0.0002025,0.0000000,0.0000000,0.0000202,0.0000000,0.0000000,0.0000000,0.0002025,0.0000000,0.0000000,0.0000202,0.0000202,0.0000000,0.0000000,0.0000040,0.0000000,0.0000000,0.0000000,0.0000202,0.0000000,0.0000000,0.0000040,0.0000000,0.0000000,0.0000000,0.0000202,0.0000000,0.0000000,0.0000040
92.9939650,,1.0100000,-0.9745696,-0.2239508,0.0007958,0.0076400,,,,-0.1432412,-0.0693336,-0.0002759,0.9474132,-4.2347531,-11.5937910,0.0000000,0.0000000,0.0000000,0.1010000,0.0001985,0.0000000,0.0000000,0.0000198,0.0000000,0.0000000,0.0000000,0.0001985,0.0000000,0.0000000,0.0000198,0.0000000,0.0000000,0.0000000,0.0001985,0.0000000,0.0000000,0.0000198,0.0000198,0.0000000,0.0000000,0.0000040,0.0000000,0.0000000,0.0000000,0.0000198,0.0000000,0.0000000,0.0000040,0.0000000,0.0000000,0.0000000,0.0000198,0.0000000,0.0000000,0.0000040
93.0085980,1.0996000,,-0.9745696,-0.2239508,0.0007958,0.0076400,-0.0108175,0.1523101,0.0583029,,,,0.9474132,-4.2347531,-11.5937910,0.0000000,0.0000000,0.0000000,0.0219920,0.0001993,0.0000000,0.0000000,0.0000199,0.0000000,0.0000000,0.0000000,0.0001993,0.0000000,0.0000000,0.0000199,0.0000000,0.0000000,0.0000000,0.0001993,0.0000000,0.0000000,0.0000199,0.0000199,0.0000000,0.0000000,0.0000040,0.0000000,0.0000000,0.0000000,0.0000199,0.0000000,0.0000000,0.0000040,0.0000000,0.0000000,0.0000000,0.0000199,0.0000000,0.0000000,0.0000040
93.0218510,1.4496500,,-0.9745737,-0.2239319,0.0006924,0.0077181,-0.0024256,0.1178268,0.0127330,,,,0.9474132,-4.2347531,-11.5937910,0.0000000,0.0000000,0.0000000,0.0289930,0.0002005,0.0000000,0.0000000,0.0000200,0.0000000,0.0000000,0.0000000,0.0002005,0.0000000,0.0000000,0.0000200,0.0000000,0.0000000,0.0000000,0.0002005,0.0000000,0.0000000,0.0000200,0.0000200,0.0000000,0.0000000,0.0000040,0.0000000,0.0000000,0.0000000,0.0000200,0.0000000,0.0000000,0.0000040,0.0000000,0.0000000,0.0000000,0.0000200,0.0000000,0.0000000,0.0000040
93.0418420,1.0001501,,-0.9745622,-0.2239514,0.0010374,0.0085013,-0.0410001,-0.0647820,0.0382650,,,,0.9474132,-4.2347531,-11.5937910,0.0000000,0.0000000,0.0000000,0.0200030,0.0002013,0.0000000,0.0000000,0.0000201,0.0000000,0.0000000,0.0000000,0.0002013,0.0000000,0.0000000,0.0000201,0.0000000,0.0000000,0.0000000,0.0002013,0.0000000,0.0000000,0.0000201,0.0000201,0.0000000,0.0000000,0.0000040,0.0000000,0.0000000,0.0000000,0.0000201,0.0000000,0.0000000,0.0000040,0.0000000,0.0000000,0.0000000,0.0000201,0.0000000,0.0000000,0.0000040
93.0617010,1.0003500,,-0.9745774,-0.2238823,0.0010410,0.0086041,0.0254518,0.0439564,-0.0488149,,,,0.9474132,-4.2347531,-11.5937910,0.0000000,0.0000000,0.0000000,0.0200070,0.0002021,0.0000000,0.0000000,0.0000202,0.0000000,0.0000000,0.0000000,0.0002021,0.0000000,0.0000000,0.0000202,0.0000000,0.0000000,0.0000000,0.0002021,0.0000000,0.0000000,0.0000202,0.0000202,0.0000000,0.0000000,0.0000040,0.0000000,0.0000000,0.0000000,0.0000202,0.0000000,0.0000000,0.0000040,0.0000000,0.0000000,0.0000000,0.0000202,0.0000000,0.0000000,0.0000040
93.0829660,1.0496000,,-0.9745660,-0.2239050,0.0011348,0.0092565,0.0368577,-0.0669653,0.0160207,,,,0.9474140,-4.2347364,-11.5937939,0.0000805,0.0016081,-0.0003087,0.0209920,0.0002029,0.0000000,0.0000000,0.0000203,0.0000000,0.0000000,0.0000000,0.0002029,0.0000000,0.0000000,0.0000203,0.0000000,0.0000000,0.0000000,0.0002029,0.0000000,0.0000000,0.0000203,0.0000203,0.0000000,0.0000000,0.0000040,0.0000000,0.0000000,0.0000000,0.0000203,0.0000000,0.0000000,0.0000040,0.0000000,0.0000000,0.0000000,0.0000203,0.0000000,0.0000000,0.0000040
93.0998440,,1.0200601,-0.9745660,-0.2239050,0.0011348,0.0092565,,,,-0.1498393,-0.0726808,-0.0003219,0.9444337,-4.2361822,-11.5938005,-0.0002172,0.0014637,-0.0003093,0.1020060,0.0001989,0.0000000,0.0000000,0.0000199,0.0000000,0.0000000,0.0000000,0.0001989,0.0000000,0.0000000,0.0000199,0.0000000,0.0000000,0.0000000,0.0001989,0.0000000,0.0000000,0.0000199,0.0000199,0.0000000,0.0000000,0.0000040,0.0000000,0.0000000,0.0000000,0.0000199,0.0000000,0.0000000,0.0000040,0.0000000,0.0000000,0.0000000,0.0000199,0.0000000,0.0000000,0.0000040
93.1138220,1.1002500,,-0.9745991,-0.2237600,0.0010824,0.0092969,0.0085564,0.2746839,-0.0113607,,,,0.9444599,-4.2362089,-11.5938063,0.0025900,-0.0038967,-0.0001714,0.0220050,0.0001998,0.0000000,0.0000000,0.0000200,0.0000000,0.0000000,0.0000000,0.0001998,0.0000000,0.0000000,0.0000200,0.0000000,0.0000000,0.0000000,0.0001998,0.0000000,0.0000000,0.0000200,0.0000200,0.0000000,0.0000000,0.0000040,0.0000000,0.0000000,0.0000000,0.0000200,0.0000000,0.0000000,0.0000040,0.0000000,0.0000000,0.0000000,0.0000200,0.0000000,0.0000000,0.0000040
93.1267500,1.0996000,,-0.9746041,-0.2237244,0.0011324,0.0096241,-0.0270634,0.0389075,0.0530584,,,,0.9444599,-4.2362089,-11.5938063,0.0000000,0.0000000,0.0000000,0.0219920,0.0002007,0.0000000,0.0000000,0.0000200,0.0000000,0.0000000,0.0000000,0.0002007,0.0000000,0.0000000,0.0000200,0.0000000,0.0000000,0.0000000,0.0002007,0.0000000,0.0000000,0.0000200,0.0000200,0.0000000,0.0000000,0.0000040,0.0000000,0.0000000,0.0000000,0.0000200,0.0000000,0.0000000,0.0000040,0.0000000,0.0000000,0.0000000,0.0000200,0.0000000,0.0000000,0.0000040
93.1464400,1.0001501,,-0.9746451,-0.2235618,0.0010160,0.0092490,0.0017271,0.1630771,-0.0043088,,,,0.9444599,-4.2362089,-11.5938063,0.0000000,0.0000000,0.0000000,0.0200030,0.0002015,0.0000000,0.0000000,0.0000201,0.0000000,0.0000000,0.0000000,0.0002015,0.0000000,0.0000000,0.0000201,0.0000000,0.0000000,0.0000000,0.0002015,0.0000000,0.0000000,0.0000201,0.0000201,0.0000000,0.0000000,0.0000040,0.0000000,0.0000000,0.0000000,0.0000201,0.0000000,0.0000000,0.0000040,0.0000000,0.0000000,0.0000000,0.0000201,0.0000000,0.0000000,0.0000040
93.1677370,1.0500000,,-0.9746459,-0.2235715,0.0009932,0.0089349,-0.0394196,-0.0685316,-0.0425063,,,,0.9444599,-4.2362089,-11.5938063,0.0000000,0.0000000,0.0000000,0.0210000,0.0002023,0.0000000,0.0000000,0.0000202,0.0000000,0.0000000,0.0000000,0.0002023,0.0000000,0.0000000,0.0000202,0.0000000,0.0000000,0.0000000,0.0002023,0.0000000,0.0000000,0.0000202,0.0000202,0.0000000,0.0000000,0.0000040,0.0000000,0.0000000,0.0000000,0.0000202,0.0000000,0.0000000,0.0000040,0.0000000,0.0000000,0.0000000,0.0000202,0.0000000,0.0000000,0.0000040
93.1891890,0.9999500,,-0.9746462,-0.2235477,0.0011161,0.0094609,-0.0297654,-0.1001762,0.0128274,,,,0.9444599,-4.2362089,-11.5938063,0.0000000,0.0000000,0.0000000,0.0199990,0.0002031,0.0000000,0.0000000,0.0000203,0.0000000,0.0000000,0.0000000,0.0002031,0.0000000,0.0000000,0.0000203,0.0000000,0.0000000,0.0000000,0.0002031,0.0000000,0.0000000,0.0000203,0.0000203,0.0000000,0.0000000,0.0000040,0.0000000,0.0000000,0.0000000,0.0000203,0.0000000,0.0000000,0.0000040,0.0000000,0.0000000,0.0000000,0.0000203,0.0000000,0.0000000,0.0000040
93.2050190,,1.0199499,-0.9746462,-0.2235477,0.0011161,0.0090702,,,,-0.1500245,-0.0726379,-0.0003424,0.9414729,-4.2376542,-11.5938129,-0.0002984,-0.0001444,-0.0000007,0.1019950,0.0001991,0.0000000,0.0000000,0.0000199,0.0000000,0.0000000,0.0000000,0.0001991,0.0000000,0.0000000,0.0000199,0.0000000,0.0000000,0.0000000,0.0001991,0.0000000,0.0000000,0.0000199,0.0000199,0.0000000,0.0000000,0.0000040,0.0000000,0.0000000,0.0000000,0.0000199,0.0000000,0.0000000,0.0000040,0.0000000,0.0000000,0.0000000,0.0000199,0.0000000,0.0000000,0.0000040
93.2195800,1.0000000,,-0.9746670,-0.2234736,0.0011386,0.0090702,-0.0398537,0.0457905,0.0163472,,,,0.9414729,-4.2376542,-11.5938129,0.0000000,0.0000000,0.0000000,0.0200000,0.0001999,0.0000000,0.0000000,0.0000200,0.0000000,0.0000000,0.0000000,0.0001999,0.0000000,0.0000000,0.0000200,0.0000000,0.0000000,0.0000000,0.0001999,0.0000000,0.0000000,0.0000200,0.0000200,0.0000000,0.0000000,0.0000040,0.0000000,0.0000000,0.0000000,0.0000200,0.0000000,0.0000000,0.0000040,0.0000000,0.0000000,0.0000000,0.0000200,0.0000000,0.0000000,0.0000040
93.2326000,1.2499000,,-0.9746706,-0.2234521,0.0012575,0.0091931,0.0262157,0.0137324,0.0227381,,,,0.9414729,-4.2376542,-11.5938129,0.0000000,0.0000000,0.0000000,0.0249980,0.0002009,0.0000000,0.0000000,0.0000201,0.0000000,0.0000000,0.0000000,0.0002009,0.0000000,0.0000000,0.0000201,0.0000000,0.0000000,0.0000000,0.0002009,0.0000000,0.0000000,0.0000201,0.0000201,0.0000000,0.0000000,0.0000040,0.0000000,0.0000000,0.0000000,0.0000201,0.0000000,0.0000000,0.0000040,0.0000000,0.0000000,0.0000000,0.0000201,0.0000000,0.0000000,0.0000040
93.2537700,1.0501001,,-0.9747072,-0.2233132,0.0009197,0.0087017,0.0321127,0.0821378,-0.0138385,,,,0.9414729,-4.2376542,-11.5938129,0.0000000,0.0000000,0.0000000,0.0210020,0.0002017,0.0000000,0.0000000,0.0000202,0.0000000,0.0000000,0.0000000,0.0002017,0.0000000,0.0000000,0.0000202,0.0000000,0.0000000,0.0000000,0.0002017,0.0000000,0.0000000,0.0000202,0.0000202,0.0000000,0.0000000,0.0000040,0.0000000,0.0000000,0.0000000,0.0000202,0.0000000,0.0000000,0.0000040,0.0000000,0.0000000,0.0000000,0.0000202,0.0000000,0.0000000,0.0000040
93.2740030,1.0000000,,-0.9747013,-0.2233419,0.0009485,0.0086435,0.0395091,0.1338881,-0.0123590,,,,0.9414729,-4.2376542,-11.5938129,0.0000000,0.0000000,0.0000000,0.0200000,0.0002025,0.0000000,0.0000000,0.0000202,0.0000000,0.0000000,0.0000000,0.0002025,0.0000000,0.0000000,0.0000202,0.0000000,0.0000000,0.0000000,0.0002025,0.0000000,0.0000000,0.0000202,0.0000202,0.0000000,0.0000000,0.0000040,0.0000000,0.0000000,0.0000000,0.0000202,0.0000000,0.0000000,0.0000040,0.0000000,0.0000000,0.0000000,0.0000202,0.0000000,0.0000000,0.0000040
93.2938410,0.9999500,,-0.9747338,-0.2232243,0.0006465,0.0079932,0.0802251,0.2196922,0.0001148,,,,0.9415064,-4.2376866,-11.5938139,0.0033564,-0.0032570,-0.0000683,0.0199990,0.0002033,0.0000000,0.0000000,0.0000203,0.0000000,0.0000000,0.0000000,0.0002033,0.0000000,0.0000000,0.0000203,0.0000000,0.0000000,0.0000000,0.0002033,0.0000000,0.0000000,0.0000203,0.0000203,0.0000000,0.0000000,0.0000040,0.0000000,0.0000000,0.0000000,0.0000203,0.0000000,0.0000000,0.0000040,0.0000000,0.0000000,0.0000000,0.0000203,0.0000000,0.0000000,0.0000040
93.3099300,,0.9999900,-0.9747338,-0.2232243,0.0006465,0.0076132,,,,-0.1466905,-0.0795414,-0.0005082,0.9385828,-4.2392712,-11.5938244,0.0030644,-0.0034152,-0.0000693,0.0999990,0.0001993,0.0000000,0.0000000,0.0000199,0.0000000,0.0000000,0.0000000,0.0001993,0.0000000,0.0000000,0.0000199,0.0000000,0.0000000,0.0000000,0.0001993,0.0000000,0.0000000,0.0000199,0.0000199,0.0000000,0.0000000,0.0000040,0.0000000,0.0000000,0.0000000,0.0000199,0.0000000,0.0000000,0.0000040,0.0000000,0.0000000,0.0000000,0.0000199,0.0000000,0.0000000,0.0000040
93.3237190,1.0000000,,-0.9747344,-0.2232356,0.0005409,0.0076132,0.0447818,0.1050319,0.0041620,,,,0.9386613,-4.2393546,-11.5938272,0.0047845,-0.0049153,-0.0001821,0.0200000,0.0002001,0.0000000,0.0000000,0.0000200,0.0000000,0.0000000,0.0000000,0.0002001,0.0000000,0.0000000,0.0000200,0.0000000,0.0000000,0.0000000,0.0002001,0.0000000,0.0000000,0.0000200,0.0000200,0.0000000,0.0000000,0.0000040,0.0000000,0.0000000,0.0000000,0.0000200,0.0000000,0.0000000,0.0000040,0.0000000,0.0000000,0.0000000,0.0000200,0.0000000,0.0000000,0.0000040
93.3366370,1.1500000,,-0.9747538,-0.2231593,0.0004401,0.0073812,0.0814348,0.1718702,-0.0206699,,,,0.9388105,-4.2394991,-11.5938263,0.0081927,-0.0076660,0.0002401,0.0230000,0.0002010,0.0000000,0.0000000,0.0000201,0.0000000,0.0000000,0.0000000,0.0002010,0.0000000,0.0000000,0.0000201,0.0000000,0.0000000,0.0000000,0.0002010,0.0000000,0.0000000,0.0000201,0.0000201,0.0000000,0.0000000,0.0000040,0.0000000,0.0000000,0.0000000,0.0000201,0.0000000,0.0000000,0.0000040,0.0000000,0.0000000,0.0000000,0.0000201,0.0000000,0.0000000,0.0000040
93.3590610,1.0501500,,-0.9747438,-0.2232103,0.0004558,0.0071589,0.0139992,0.0224967,0.0179396,,,,0.9388105,-4.2394991,-11.5938263,0.0000000,0.0000000,0.0000000,0.0210030,0.0002018,0.0000000,0.0000000,0.0000202,0.0000000,0.0000000,0.0000000,0.0002018,0.0000000,0.0000000,0.0000202,0.0000000,0.0000000,0.0000000,0.0002018,0.0000000,0.0000000,0.0000202,0.0000202,0.0000000,0.0000000,0.0000040,0.0000000,0.0000000,0.0000000,0.0000202,0.0000000,0.0000000,0.0000040,0.0000000,0.0000000,0.0000000,0.0000202,0.0000000,0.0000000,0.0000040
93.3777620,0.9998500,,-0.9747496,-0.2231771,0.0005428,0.0073960,0.0332600,-0.0107091,0.0430961,,,,0.9388105,-4.2394991,-11.5938263,0.0000000,0.0000000,0.0000000,0.0199970,0.0002026,0.0000000,0.0000000,0.0000202,0.0000000,0.0000000,0.0000000,0.0002026,0.0000000,0.0000000,0.0000202,0.0000000,0.0000000,0.0000000,0.0002026,0.0000000,0.0000000,0.0000202,0.0000202,0.0000000,0.0000000,0.0000040,0.0000000,0.0000000,0.0000000,0.0000202,0.0000000,0.0000000,0.0000040,0.0000000,0.0000000,0.0000000,0.0000202,0.0000000,0.0000000,0.0000040
93.3991430,,1.0000600,-0.9747659,-0.2231197,0.0003600,0.0069675,,,,-0.1640227,-0.0794333,-0.0004111,0.9355484,-4.2410722,-11.5938349,0.0000000,0.0000000,0.0000000,0.1000060,0.0001986,0.0000000,0.0000000,0.0000198,0.0000000,0.0000000,0.0000000,0.0001986,0.0000000,0.0000000,0.0000198,0.0000000,0.0000000,0.0000000,0.0001986,0.0000000,0.0000000,0.0000198,0.0000198,0.0000000,0.0000000,0.0000040,0.0000000,0.0000000,0.0000000,0.0000198,0.0000000,0.0000000,0.0000040,0.0000000,0.0000000,0.0000000,0.0000198,0.0000000,0.0000000,0.0000040
93.4124950,0.9999500,,-0.9747659,-0.2231197,0.0003600,0.0069675,-0.0051596,-0.0411745,-0.0053456,,,,0.9355484,-4.2410722,-11.5938349,0.0000000,0.0000000,0.0000000,0.0199990,0.0001994,0.0000000,0.0000000,0.0000199,0.0000000,0.0000000,0.0000000,0.0001994,0.0000000,0.0000000,0.0000199,0.0000000,0.0000000,0.0000000,0.0001994,0.0000000,0.0000000,0.0000199,0.0000199,0.0000000,0.0000000,0.0000040,0.0000000,0.0000000,0.0000000,0.0000199,0.0000000,0.0000000,0.0000040,0.0000000,0.0000000,0.0000000,0.0000199,0.0000000,0.0000000,0.0000040
93.4256600,1.4000001,,-0.9747680,-0.2231156,0.0004367,0.0068068,-0.0301677,0.0697524,-0.0100352,,,,0.9355484,-4.2410722,-11.5938349,0.0000000,0.0000000,0.0000000,0.0280000,0.0002005,0.0000000,0.0000000,0.0000200,0.0000000,0.0000000,0.0000000,0.0002005,0.0000000,0.0000000,0.0000200,0.0000000,0.0000000,0.0000000,0.0002005,0.0000000,0.0000000,0.0000200,0.0000200,0.0000000,0.0000000,0.0000040,0.0000000,0.0000000,0.0000000,0.0000200,0.0000000,0.0000000,0.0000040,0.0000000,0.0000000,0.0000000,0.0000200,0.0000000,0.0000000,0.0000040
93.4458060,1.0004500,,-0.9747757,-0.2230927,0.0002640,0.0064659,0.0314936,0.0081581,-0.0026067,,,,0.9355484,-4.2410722,-11.5938349,0.0000000,0.0000000,0.0000000,0.0200090,0.0002013,0.0000000,0.0000000,0.0000201,0.0000000,0.0000000,0.0000000,0.0002013,0.0000000,0.0000000,0.0000201,0.0000000,0.0000000,0.0000000,0.0002013,0.0000000,0.0000000,0.0000201,0.0000201,0.0000000,0.0000000,0.0000040,0.0000000,0.0000000,0.0000000,0.0000201,0.0000000,0.0000000,0.0000040,0.0000000,0.0000000,0.0000000,0.0000201,0.0000000,0.0000000,0.0000040
