t,predict_cpu,update_cpu,quat_x,quat_y,quat_z,quat_w,accel_x,accel_y,accel_z,of_x,of_y,of_z,x_x,x_y,x_z,x_vx,x_vy,x_vz,dt,P_0,P_1,P_2,P_3,P_4,P_5,P_6,P_7,P_8,P_9,P_10,P_11,P_12,P_13,P_14,P_15,P_16,P_17,P_18,P_19,P_20,P_21,P_22,P_23,P_24,P_25,P_26,P_27,P_28,P_29,P_30,P_31,P_32,P_33,P_34,P_35
62.3381840,,1.0099800,-0.9866972,-0.1625569,-0.0003836,0.0019475,,,,0.0000000,0.0000000,0.0000000,1.1375118,-7.1476393,-21.3477974,0.0000000,0.0000000,0.0000000,0.1009980,0.0513790,0.0000000,0.0000000,0.0070999,0.0000000,0.0000000,0.0000000,0.0513790,0.0000000,0.0000000,0.0070999,0.0000000,0.0000000,0.0000000,0.0513790,0.0000000,0.0000000,0.0070999,0.0070999,0.0000000,0.0000000,0.0019713,0.0000000,0.0000000,0.0000000,0.0070999,0.0000000,0.0000000,0.0019713,0.0000000,0.0000000,0.0000000,0.0070999,0.0000000,0.0000000,0.0019713
62.3516010,1.1001501,,-0.9866972,-0.1625569,-0.0003768,0.0019426,-0.0008883,0.0076634,0.0002648,,,,1.1375118,-7.1476393,-21.3477974,0.0000000,0.0000000,0.0000000,0.0220030,0.0516914,0.0000000,0.0000000,0.0071434,0.0000000,0.0000000,0.0000000,0.0516914,0.0000000,0.0000000,0.0071434,0.0000000,0.0000000,0.0000000,0.0516914,0.0000000,0.0000000,0.0071434,0.0071434,0.0000000,0.0000000,0.0019773,0.0000000,0.0000000,0.0000000,0.0071434,0.0000000,0.0000000,0.0019773,0.0000000,0.0000000,0.0000000,0.0071434,0.0000000,0.0000000,0.0019773
62.3647560,1.0498000,,-0.9866972,-0.1625569,-0.0003611,0.0019502,0.0008529,0.0052203,0.0001324,,,,1.1375118,-7.1476393,-21.3477974,0.0000000,0.0000000,0.0000000,0.0209960,0.0519914,0.0000000,0.0000000,0.0071849,0.0000000,0.0000000,0.0000000,0.0519914,0.0000000,0.0000000,0.0071849,0.0000000,0.0000000,0.0000000,0.0519914,0.0000000,0.0000000,0.0071849,0.0071849,0.0000000,0.0000000,0.0019831,0.0000000,0.0000000,0.0000000,0.0071849,0.0000000,0.0000000,0.0019831,0.0000000,0.0000000,0.0000000,0.0071849,0.0000000,0.0000000,0.0019831
62.3849330,1.0002999,,-0.9866972,-0.1625569,-0.0003711,0.0019537,0.0026695,0.0037469,-0.0013986,,,,1.1375118,-7.1476393,-21.3477974,0.0000000,0.0000000,0.0000000,0.0200060,0.0522789,0.0000000,0.0000000,0.0072247,0.0000000,0.0000000,0.0000000,0.0522789,0.0000000,0.0000000,0.0072247,0.0000000,0.0000000,0.0000000,0.0522789,0.0000000,0.0000000,0.0072247,0.0072247,0.0000000,0.0000000,0.0019886,0.0000000,0.0000000,0.0000000,0.0072247,0.0000000,0.0000000,0.0019886,0.0000000,0.0000000,0.0000000,0.0072247,0.0000000,0.0000000,0.0019886
62.4046030,0.9997000,,-0.9866972,-0.1625569,-0.0003671,0.0019591,0.0060344,0.0013165,0.0005214,,,,1.1375118,-7.1476393,-21.3477974,0.0000000,0.0000000,0.0000000,0.0199940,0.0525678,0.0000000,0.0000000,0.0072645,0.0000000,0.0000000,0.0000000,0.0525678,0.0000000,0.0000000,0.0072645,0.0000000,0.0000000,0.0000000,0.0525678,0.0000000,0.0000000,0.0072645,0.0072645,0.0000000,0.0000000,0.0019941,0.0000000,0.0000000,0.0000000,0.0072645,0.0000000,0.0000000,0.0019941,0.0000000,0.0000000,0.0000000,0.0072645,0.0000000,0.0000000,0.0019941
62.4247640,1.0004500,,-0.9866972,-0.1625569,-0.0003825,0.0019597,0.0086553,0.0030234,0.0027021,,,,1.1375118,-7.1476393,-21.3477974,0.0000000,0.0000000,0.0000000,0.0200090,0.0528585,0.0000000,0.0000000,0.0073044,0.0000000,0.0000000,0.0000000,0.0528585,0.0000000,0.0000000,0.0073044,0.0000000,0.0000000,0.0000000,0.0528585,0.0000000,0.0000000,0.0073044,0.0073044,0.0000000,0.0000000,0.0019996,0.0000000,0.0000000,0.0000000,0.0073044,0.0000000,0.0000000,0.0019996,0.0000000,0.0000000,0.0000000,0.0073044,0.0000000,0.0000000,0.0019996
62.4411510,,1.0000199,-0.9866972,-0.1625569,-0.0003825,0.0019597,,,,0.0000000,0.0000000,0.0000000,1.1375118,-7.1476393,-21.3477974,0.0000000,0.0000000,0.0000000,0.1000020,0.0514112,0.0000000,0.0000000,0.0071045,0.0000000,0.0000000,0.0000000,0.0514112,0.0000000,0.0000000,0.0071045,0.0000000,0.0000000,0.0000000,0.0514112,0.0000000,0.0000000,0.0071045,0.0071045,0.0000000,0.0000000,0.0019719,0.0000000,0.0000000,0.0000000,0.0071045,0.0000000,0.0000000,0.0019719,0.0000000,0.0000000,0.0000000,0.0071045,0.0000000,0.0000000,0.0019719
62.4555930,0.9995500,,-0.9866971,-0.1625569,-0.0003813,0.0019739,0.0063189,0.0024425,-0.0064615,,,,1.1375118,-7.1476393,-21.3477974,0.0000000,0.0000000,0.0000000,0.0199910,0.0516953,0.0000000,0.0000000,0.0071439,0.0000000,0.0000000,0.0000000,0.0516953,0.0000000,0.0000000,0.0071439,0.0000000,0.0000000,0.0000000,0.0516953,0.0000000,0.0000000,0.0071439,0.0071439,0.0000000,0.0000000,0.0019774,0.0000000,0.0000000,0.0000000,0.0071439,0.0000000,0.0000000,0.0019774,0.0000000,0.0000000,0.0000000,0.0071439,0.0000000,0.0000000,0.0019774
62.4687770,1.2004000,,-0.9866971,-0.1625569,-0.0003664,0.0020036,0.0015115,-0.0063471,0.0004314,,,,1.1375118,-7.1476393,-21.3477974,0.0000000,0.0000000,0.0000000,0.0240080,0.0520383,0.0000000,0.0000000,0.0071915,0.0000000,0.0000000,0.0000000,0.0520383,0.0000000,0.0000000,0.0071915,0.0000000,0.0000000,0.0000000,0.0520383,0.0000000,0.0000000,0.0071915,0.0071915,0.0000000,0.0000000,0.0019840,0.0000000,0.0000000,0.0000000,0.0071915,0.0000000,0.0000000,0.0019840,0.0000000,0.0000000,0.0000000,0.0071915,0.0000000,0.0000000,0.0019840
62.4901550,1.0498999,,-0.9866971,-0.1625569,-0.0003751,0.0020134,0.0032277,-0.0036771,0.0019247,,,,1.1375118,-7.1476393,-21.3477974,0.0000000,0.0000000,0.0000000,0.0209980,0.0523403,0.0000000,0.0000000,0.0072332,0.0000000,0.0000000,0.0000000,0.0523403,0.0000000,0.0000000,0.0072332,0.0000000,0.0000000,0.0000000,0.0523403,0.0000000,0.0000000,0.0072332,0.0072332,0.0000000,0.0000000,0.0019898,0.0000000,0.0000000,0.0000000,0.0072332,0.0000000,0.0000000,0.0019898,0.0000000,0.0000000,0.0000000,0.0072332,0.0000000,0.0000000,0.0019898
62.5097270,1.0000000,,-0.9866971,-0.1625569,-0.0003792,0.0020212,0.0028651,-0.0040434,0.0002299,,,,1.1375118,-7.1476393,-21.3477974,0.0000000,0.0000000,0.0000000,0.0200000,0.0526296,0.0000000,0.0000000,0.0072730,0.0000000,0.0000000,0.0000000,0.0526296,0.0000000,0.0000000,0.0072730,0.0000000,0.0000000,0.0000000,0.0526296,0.0000000,0.0000000,0.0072730,0.0072730,0.0000000,0.0000000,0.0019953,0.0000000,0.0000000,0.0000000,0.0072730,0.0000000,0.0000000,0.0019953,0.0000000,0.0000000,0.0000000,0.0072730,0.0000000,0.0000000,0.0019953
62.5299310,1.0000000,,-0.9866971,-0.1625569,-0.0003851,0.0020206,0.0063382,0.0003968,-0.0006175,,,,1.1375118,-7.1476393,-21.3477974,0.0000000,0.0000000,0.0000000,0.0200000,0.0529206,0.0000000,0.0000000,0.0073130,0.0000000,0.0000000,0.0000000,0.0529206,0.0000000,0.0000000,0.0073130,0.0000000,0.0000000,0.0000000,0.0529206,0.0000000,0.0000000,0.0073130,0.0073130,0.0000000,0.0000000,0.0020007,0.0000000,0.0000000,0.0000000,0.0073130,0.0000000,0.0000000,0.0020007,0.0000000,0.0000000,0.0000000,0.0073130,0.0000000,0.0000000,0.0020007
62.5457430,,1.0000299,-0.9866971,-0.1625569,-0.0003851,0.0020206,,,,0.0000000,0.0000000,0.0000000,1.1375118,-7.1476393,-21.3477974,0.0000000,0.0000000,0.0000000,0.1000030,0.0514700,0.0000000,0.0000000,0.0071125,0.0000000,0.0000000,0.0000000,0.0514700,0.0000000,0.0000000,0.0071125,0.0000000,0.0000000,0.0000000,0.0514700,0.0000000,0.0000000,0.0071125,0.0071125,0.0000000,0.0000000,0.0019730,0.0000000,0.0000000,0.0000000,0.0071125,0.0000000,0.0000000,0.0019730,0.0000000,0.0000000,0.0000000,0.0071125,0.0000000,0.0000000,0.0019730
62.5596320,0.9996000,,-0.9866970,-0.1625569,-0.0003848,0.0020406,-0.0009584,-0.0024643,-0.0032384,,,,1.1375118,-7.1476393,-21.3477974,0.0000000,0.0000000,0.0000000,0.0199920,0.0517544,0.0000000,0.0000000,0.0071520,0.0000000,0.0000000,0.0000000,0.0517544,0.0000000,0.0000000,0.0071520,0.0000000,0.0000000,0.0000000,0.0517544,0.0000000,0.0000000,0.0071520,0.0071520,0.0000000,0.0000000,0.0019785,0.0000000,0.0000000,0.0000000,0.0071520,0.0000000,0.0000000,0.0019785,0.0000000,0.0000000,0.0000000,0.0071520,0.0000000,0.0000000,0.0019785
62.5727550,1.1500000,,-0.9866970,-0.1625568,-0.0003686,0.0020760,-0.0001893,-0.0065269,-0.0057696,,,,1.1375118,-7.1476393,-21.3477974,0.0000000,0.0000000,0.0000000,0.0230000,0.0520834,0.0000000,0.0000000,0.0071976,0.0000000,0.0000000,0.0000000,0.0520834,0.0000000,0.0000000,0.0071976,0.0000000,0.0000000,0.0000000,0.0520834,0.0000000,0.0000000,0.0071976,0.0071976,0.0000000,0.0000000,0.0019848,0.0000000,0.0000000,0.0000000,0.0071976,0.0000000,0.0000000,0.0019848,0.0000000,0.0000000,0.0000000,0.0071976,0.0000000,0.0000000,0.0019848
62.5940110,1.0502001,,-0.9866969,-0.1625568,-0.0003595,0.0020985,-0.0041993,-0.0075741,-0.0067911,,,,1.1375118,-7.1476393,-21.3477974,0.0000000,0.0000000,0.0000000,0.0210040,0.0523857,0.0000000,0.0000000,0.0072394,0.0000000,0.0000000,0.0000000,0.0523857,0.0000000,0.0000000,0.0072394,0.0000000,0.0000000,0.0000000,0.0523857,0.0000000,0.0000000,0.0072394,0.0072394,0.0000000,0.0000000,0.0019906,0.0000000,0.0000000,0.0000000,0.0072394,0.0000000,0.0000000,0.0019906,0.0000000,0.0000000,0.0000000,0.0072394,0.0000000,0.0000000,0.0019906
62.6139240,1.0000501,,-0.9866968,-0.1625568,-0.0003739,0.0021262,-0.0057617,-0.0022078,-0.0011983,,,,1.1375118,-7.1476393,-21.3477974,0.0000000,0.0000000,0.0000000,0.0200010,0.0526753,0.0000000,0.0000000,0.0072792,0.0000000,0.0000000,0.0000000,0.0526753,0.0000000,0.0000000,0.0072792,0.0000000,0.0000000,0.0000000,0.0526753,0.0000000,0.0000000,0.0072792,0.0072792,0.0000000,0.0000000,0.0019961,0.0000000,0.0000000,0.0000000,0.0072792,0.0000000,0.0000000,0.0019961,0.0000000,0.0000000,0.0000000,0.0072792,0.0000000,0.0000000,0.0019961
62.6339730,1.0001000,,-0.9866968,-0.1625568,-0.0003715,0.0021249,-0.0074890,0.0023980,-0.0064585,,,,1.1375118,-7.1476393,-21.3477974,0.0000000,0.0000000,0.0000000,0.0200020,0.0529665,0.0000000,0.0000000,0.0073192,0.0000000,0.0000000,0.0000000,0.0529665,0.0000000,0.0000000,0.0073192,0.0000000,0.0000000,0.0000000,0.0529665,0.0000000,0.0000000,0.0073192,0.0073192,0.0000000,0.0000000,0.0020016,0.0000000,0.0000000,0.0000000,0.0073192,0.0000000,0.0000000,0.0020016,0.0000000,0.0000000,0.0000000,0.0073192,0.0000000,0.0000000,0.0020016
62.6497610,,0.9999900,-0.9866968,-0.1625568,-0.0003715,0.0021249,,,,0.0000000,0.0000000,0.0000000,1.1375118,-7.1476393,-21.3477974,0.0000000,0.0000000,0.0000000,0.0999990,0.0515134,0.0000000,0.0000000,0.0071184,0.0000000,0.0000000,0.0000000,0.0515134,0.0000000,0.0000000,0.0071184,0.0000000,0.0000000,0.0000000,0.0515134,0.0000000,0.0000000,0.0071184,0.0071184,0.0000000,0.0000000,0.0019738,0.0000000,0.0000000,0.0000000,0.0071184,0.0000000,0.0000000,0.0019738,0.0000000,0.0000000,0.0000000,0.0071184,0.0000000,0.0000000,0.0019738
62.6635470,0.9999000,,-0.9866968,-0.1625568,-0.0003838,0.0021338,0.0023590,0.0034955,-0.0024968,,,,1.1375118,-7.1476393,-21.3477974,0.0000000,0.0000000,0.0000000,0.0199980,0.0517981,0.0000000,0.0000000,0.0071579,0.0000000,0.0000000,0.0000000,0.0517981,0.0000000,0.0000000,0.0071579,0.0000000,0.0000000,0.0000000,0.0517981,0.0000000,0.0000000,0.0071579,0.0071579,0.0000000,0.0000000,0.0019793,0.0000000,0.0000000,0.0000000,0.0071579,0.0000000,0.0000000,0.0019793,0.0000000,0.0000000,0.0000000,0.0071579,0.0000000,0.0000000,0.0019793
62.6767570,1.1497501,,-0.9866968,-0.1625568,-0.0003798,0.0021548,0.0038803,0.0026175,-0.0012484,,,,1.1375118,-7.1476393,-21.3477974,0.0000000,0.0000000,0.0000000,0.0229950,0.0521273,0.0000000,0.0000000,0.0072035,0.0000000,0.0000000,0.0000000,0.0521273,0.0000000,0.0000000,0.0072035,0.0000000,0.0000000,0.0000000,0.0521273,0.0000000,0.0000000,0.0072035,0.0072035,0.0000000,0.0000000,0.0019856,0.0000000,0.0000000,0.0000000,0.0072035,0.0000000,0.0000000,0.0019856,0.0000000,0.0000000,0.0000000,0.0072035,0.0000000,0.0000000,0.0019856
62.6978870,1.0504000,,-0.9866967,-0.1625568,-0.0003963,0.0021732,0.0080132,-0.0034291,0.0035262,,,,1.1375118,-7.1476393,-21.3477974,0.0000000,0.0000000,0.0000000,0.0210080,0.0524300,0.0000000,0.0000000,0.0072453,0.0000000,0.0000000,0.0000000,0.0524300,0.0000000,0.0000000,0.0072453,0.0000000,0.0000000,0.0000000,0.0524300,0.0000000,0.0000000,0.0072453,0.0072453,0.0000000,0.0000000,0.0019914,0.0000000,0.0000000,0.0000000,0.0072453,0.0000000,0.0000000,0.0019914,0.0000000,0.0000000,0.0000000,0.0072453,0.0000000,0.0000000,0.0019914
62.7177870,0.9997500,,-0.9866967,-0.1625569,-0.0004069,0.0022005,0.0100719,-0.0012873,0.0015190,,,,1.1375118,-7.1476393,-21.3477974,0.0000000,0.0000000,0.0000000,0.0199950,0.0527197,0.0000000,0.0000000,0.0072852,0.0000000,0.0000000,0.0000000,0.0527197,0.0000000,0.0000000,0.0072852,0.0000000,0.0000000,0.0000000,0.0527197,0.0000000,0.0000000,0.0072852,0.0072852,0.0000000,0.0000000,0.0019969,0.0000000,0.0000000,0.0000000,0.0072852,0.0000000,0.0000000,0.0019969,0.0000000,0.0000000,0.0000000,0.0072852,0.0000000,0.0000000,0.0019969
62.7369160,,0.9999500,-0.9866966,-0.1625569,-0.0004114,0.0022123,,,,0.0000000,0.0000000,0.0000000,1.1375118,-7.1476393,-21.3477974,0.0000000,0.0000000,0.0000000,0.0999950,0.0512800,0.0000000,0.0000000,0.0070862,0.0000000,0.0000000,0.0000000,0.0512800,0.0000000,0.0000000,0.0070862,0.0000000,0.0000000,0.0000000,0.0512800,0.0000000,0.0000000,0.0070862,0.0070862,0.0000000,0.0000000,0.0019694,0.0000000,0.0000000,0.0000000,0.0070862,0.0000000,0.0000000,0.0019694,0.0000000,0.0000000,0.0000000,0.0070862,0.0000000,0.0000000,0.0019694
62.7504760,1.0002501,,-0.9866966,-0.1625569,-0.0004114,0.0022123,0.0062185,0.0017291,0.0029567,,,,1.1375118,-7.1476393,-21.3477974,0.0000000,0.0000000,0.0000000,0.0200050,0.0515635,0.0000000,0.0000000,0.0071257,0.0000000,0.0000000,0.0000000,0.0515635,0.0000000,0.0000000,0.0071257,0.0000000,0.0000000,0.0000000,0.0515635,0.0000000,0.0000000,0.0071257,0.0071257,0.0000000,0.0000000,0.0019749,0.0000000,0.0000000,0.0000000,0.0071257,0.0000000,0.0000000,0.0019749,0.0000000,0.0000000,0.0000000,0.0071257,0.0000000,0.0000000,0.0019749
62.7640050,1.2998500,,-0.9866965,-0.1625569,-0.0004356,0.0022412,0.0083964,0.0052286,-0.0036486,,,,1.1375118,-7.1476393,-21.3477974,0.0000000,0.0000000,0.0000000,0.0259970,0.0519340,0.0000000,0.0000000,0.0071771,0.0000000,0.0000000,0.0000000,0.0519340,0.0000000,0.0000000,0.0071771,0.0000000,0.0000000,0.0000000,0.0519340,0.0000000,0.0000000,0.0071771,0.0071771,0.0000000,0.0000000,0.0019820,0.0000000,0.0000000,0.0000000,0.0071771,0.0000000,0.0000000,0.0019820,0.0000000,0.0000000,0.0000000,0.0071771,0.0000000,0.0000000,0.0019820
62.7847590,1.0502501,,-0.9866965,-0.1625569,-0.0004393,0.0022484,0.0048620,0.0064824,-0.0025567,,,,1.1375118,-7.1476393,-21.3477974,0.0000000,0.0000000,0.0000000,0.0210050,0.0522355,0.0000000,0.0000000,0.0072188,0.0000000,0.0000000,0.0000000,0.0522355,0.0000000,0.0000000,0.0072188,0.0000000,0.0000000,0.0000000,0.0522355,0.0000000,0.0000000,0.0072188,0.0072188,0.0000000,0.0000000,0.0019878,0.0000000,0.0000000,0.0000000,0.0072188,0.0000000,0.0000000,0.0019878,0.0000000,0.0000000,0.0000000,0.0072188,0.0000000,0.0000000,0.0019878
62.8049340,0.9996000,,-0.9866965,-0.1625569,-0.0004462,0.0022542,0.0001574,0.0036913,0.0018955,,,,1.1375118,-7.1476393,-21.3477974,0.0000000,0.0000000,0.0000000,0.0199920,0.0525242,0.0000000,0.0000000,0.0072586,0.0000000,0.0000000,0.0000000,0.0525242,0.0000000,0.0000000,0.0072586,0.0000000,0.0000000,0.0000000,0.0525242,0.0000000,0.0000000,0.0072586,0.0072586,0.0000000,0.0000000,0.0019933,0.0000000,0.0000000,0.0000000,0.0072586,0.0000000,0.0000000,0.0019933,0.0000000,0.0000000,0.0000000,0.0072586,0.0000000,0.0000000,0.0019933
62.8246780,1.0000000,,-0.9866965,-0.1625569,-0.0004359,0.0022592,0.0010019,0.0027917,0.0021684,,,,1.1375118,-7.1476393,-21.3477974,0.0000000,0.0000000,0.0000000,0.0200000,0.0528145,0.0000000,0.0000000,0.0072985,0.0000000,0.0000000,0.0000000,0.0528145,0.0000000,0.0000000,0.0072985,0.0000000,0.0000000,0.0000000,0.0528145,0.0000000,0.0000000,0.0072985,0.0072985,0.0000000,0.0000000,0.0019988,0.0000000,0.0000000,0.0000000,0.0072985,0.0000000,0.0000000,0.0019988,0.0000000,0.0000000,0.0000000,0.0072985,0.0000000,0.0000000,0.0019988
62.8408240,,1.0000199,-0.9866965,-0.1625569,-0.0004359,0.0022592,,,,0.0000000,0.0000000,0.0000000,1.1375118,-7.1476393,-21.3477974,0.0000000,0.0000000,0.0000000,0.1000020,0.0513696,0.0000000,0.0000000,0.0070988,0.0000000,0.0000000,0.0000000,0.0513696,0.0000000,0.0000000,0.0070988,0.0000000,0.0000000,0.0000000,0.0513696,0.0000000,0.0000000,0.0070988,0.0070988,0.0000000,0.0000000,0.0019712,0.0000000,0.0000000,0.0000000,0.0070988,0.0000000,0.0000000,0.0019712,0.0000000,0.0000000,0.0000000,0.0070988,0.0000000,0.0000000,0.0019712
62.8547700,1.0003500,,-0.9866965,-0.1625568,-0.0004186,0.0022660,-0.0002620,-0.0010608,0.0005959,,,,1.1375118,-7.1476393,-21.3477974,0.0000000,0.0000000,0.0000000,0.0200070,0.0516537,0.0000000,0.0000000,0.0071383,0.0000000,0.0000000,0.0000000,0.0516537,0.0000000,0.0000000,0.0071383,0.0000000,0.0000000,0.0000000,0.0516537,0.0000000,0.0000000,0.0071383,0.0071383,0.0000000,0.0000000,0.0019767,0.0000000,0.0000000,0.0000000,0.0071383,0.0000000,0.0000000,0.0019767,0.0000000,0.0000000,0.0000000,0.0071383,0.0000000,0.0000000,0.0019767
62.8676610,1.1495500,,-0.9866965,-0.1625569,-0.0004437,0.0022404,0.0083300,0.0030478,-0.0011669,,,,1.1375118,-7.1476393,-21.3477974,0.0000000,0.0000000,0.0000000,0.0229910,0.0519819,0.0000000,0.0000000,0.0071838,0.0000000,0.0000000,0.0000000,0.0519819,0.0000000,0.0000000,0.0071838,0.0000000,0.0000000,0.0000000,0.0519819,0.0000000,0.0000000,0.0071838,0.0071838,0.0000000,0.0000000,0.0019830,0.0000000,0.0000000,0.0000000,0.0071838,0.0000000,0.0000000,0.0019830,0.0000000,0.0000000,0.0000000,0.0071838,0.0000000,0.0000000,0.0019830
62.8903210,1.0508500,,-0.9866965,-0.1625570,-0.0004580,0.0022218,0.0028527,-0.0037022,-0.0005834,,,,1.1375118,-7.1476393,-21.3477974,0.0000000,0.0000000,0.0000000,0.0210170,0.0522839,0.0000000,0.0000000,0.0072255,0.0000000,0.0000000,0.0000000,0.0522839,0.0000000,0.0000000,0.0072255,0.0000000,0.0000000,0.0000000,0.0522839,0.0000000,0.0000000,0.0072255,0.0072255,0.0000000,0.0000000,0.0019887,0.0000000,0.0000000,0.0000000,0.0072255,0.0000000,0.0000000,0.0019887,0.0000000,0.0000000,0.0000000,0.0072255,0.0000000,0.0000000,0.0019887
62.9089520,0.9993000,,-0.9866966,-0.1625570,-0.0004513,0.0021932,-0.0047306,-0.0002718,-0.0022448,,,,1.1375118,-7.1476393,-21.3477974,0.0000000,0.0000000,0.0000000,0.0199860,0.0525727,0.0000000,0.0000000,0.0072653,0.0000000,0.0000000,0.0000000,0.0525727,0.0000000,0.0000000,0.0072653,0.0000000,0.0000000,0.0000000,0.0525727,0.0000000,0.0000000,0.0072653,0.0072653,0.0000000,0.0000000,0.0019942,0.0000000,0.0000000,0.0000000,0.0072653,0.0000000,0.0000000,0.0019942,0.0000000,0.0000000,0.0000000,0.0072653,0.0000000,0.0000000,0.0019942
62.9286870,1.0000000,,-0.9866967,-0.1625569,-0.0004158,0.0021809,-0.0062639,-0.0012269,0.0005866,,,,1.1375118,-7.1476393,-21.3477974,0.0000000,0.0000000,0.0000000,0.0200000,0.0528633,0.0000000,0.0000000,0.0073053,0.0000000,0.0000000,0.0000000,0.0528633,0.0000000,0.0000000,0.0073053,0.0000000,0.0000000,0.0000000,0.0528633,0.0000000,0.0000000,0.0073053,0.0073053,0.0000000,0.0000000,0.0019997,0.0000000,0.0000000,0.0000000,0.0073053,0.0000000,0.0000000,0.0019997,0.0000000,0.0000000,0.0000000,0.0073053,0.0000000,0.0000000,0.0019997
62.9447940,,1.0000299,-0.9866967,-0.1625569,-0.0004158,0.0021809,,,,0.0000000,0.0000000,0.0000000,1.1375118,-7.1476393,-21.3477974,0.0000000,0.0000000,0.0000000,0.1000030,0.0514158,0.0000000,0.0000000,0.0071053,0.0000000,0.0000000,0.0000000,0.0514158,0.0000000,0.0000000,0.0071053,0.0000000,0.0000000,0.0000000,0.0514158,0.0000000,0.0000000,0.0071053,0.0071053,0.0000000,0.0000000,0.0019721,0.0000000,0.0000000,0.0000000,0.0071053,0.0000000,0.0000000,0.0019721,0.0000000,0.0000000,0.0000000,0.0071053,0.0000000,0.0000000,0.0019721
62.9583560,1.1000500,,-0.9866966,-0.1625569,-0.0004077,0.0021957,-0.0043679,-0.0006898,-0.0031247,,,,1.1375118,-7.1476393,-21.3477974,0.0000000,0.0000000,0.0000000,0.0220010,0.0517285,0.0000000,0.0000000,0.0071487,0.0000000,0.0000000,0.0000000,0.0517285,0.0000000,0.0000000,0.0071487,0.0000000,0.0000000,0.0000000,0.0517285,0.0000000,0.0000000,0.0071487,0.0071487,0.0000000,0.0000000,0.0019781,0.0000000,0.0000000,0.0000000,0.0071487,0.0000000,0.0000000,0.0019781,0.0000000,0.0000000,0.0000000,0.0071487,0.0000000,0.0000000,0.0019781
62.9719260,1.0498501,,-0.9866966,-0.1625568,-0.0003841,0.0021985,-0.0038701,0.0010437,-0.0049803,,,,1.1375118,-7.1476393,-21.3477974,0.0000000,0.0000000,0.0000000,0.0209970,0.0520287,0.0000000,0.0000000,0.0071903,0.0000000,0.0000000,0.0000000,0.0520287,0.0000000,0.0000000,0.0071903,0.0000000,0.0000000,0.0000000,0.0520287,0.0000000,0.0000000,0.0071903,0.0071903,0.0000000,0.0000000,0.0019839,0.0000000,0.0000000,0.0000000,0.0071903,0.0000000,0.0000000,0.0019839,0.0000000,0.0000000,0.0000000,0.0071903,0.0000000,0.0000000,0.0019839
62.9917290,1.0005001,,-0.9866965,-0.1625568,-0.0003819,0.0022364,0.0019636,-0.0060776,-0.0039550,,,,1.1375118,-7.1476393,-21.3477974,0.0000000,0.0000000,0.0000000,0.0200100,0.0523164,0.0000000,0.0000000,0.0072300,0.0000000,0.0000000,0.0000000,0.0523164,0.0000000,0.0000000,0.0072300,0.0000000,0.0000000,0.0000000,0.0523164,0.0000000,0.0000000,0.0072300,0.0072300,0.0000000,0.0000000,0.0019894,0.0000000,0.0000000,0.0000000,0.0072300,0.0000000,0.0000000,0.0019894,0.0000000,0.0000000,0.0000000,0.0072300,0.0000000,0.0000000,0.0019894
63.0117160,0.9995000,,-0.9866966,-0.1625568,-0.0003771,0.0022222,-0.0058465,-0.0006737,-0.0010009,,,,1.1375118,-7.1476393,-21.3477974,0.0000000,0.0000000,0.0000000,0.0199900,0.0526055,0.0000000,0.0000000,0.0072699,0.0000000,0.0000000,0.0000000,0.0526055,0.0000000,0.0000000,0.0072699,0.0000000,0.0000000,0.0000000,0.0526055,0.0000000,0.0000000,0.0072699,0.0072699,0.0000000,0.0000000,0.0019948,0.0000000,0.0000000,0.0000000,0.0072699,0.0000000,0.0000000,0.0019948,0.0000000,0.0000000,0.0000000,0.0072699,0.0000000,0.0000000,0.0019948
63.0327590,1.0502001,,-0.9866966,-0.1625568,-0.0003665,0.0022148,-0.0014355,0.0005634,-0.0017212,,,,1.1375118,-7.1476393,-21.3477974,0.0000000,0.0000000,0.0000000,0.0210040,0.0529109,0.0000000,0.0000000,0.0073118,0.0000000,0.0000000,0.0000000,0.0529109,0.0000000,0.0000000,0.0073118,0.0000000,0.0000000,0.0000000,0.0529109,0.0000000,0.0000000,0.0073118,0.0073118,0.0000000,0.0000000,0.0020006,0.0000000,0.0000000,0.0000000,0.0073118,0.0000000,0.0000000,0.0020006,0.0000000,0.0000000,0.0000000,0.0073118,0.0000000,0.0000000,0.0020006
63.0486360,,1.0199499,-0.9866966,-0.1625568,-0.0003665,0.0022148,,,,0.0000000,0.0000000,0.0000000,1.1375118,-7.1476393,-21.3477974,0.0000000,0.0000000,0.0000000,0.1019950,0.0514608,0.0000000,0.0000000,0.0071114,0.0000000,0.0000000,0.0000000,0.0514608,0.0000000,0.0000000,0.0071114,0.0000000,0.0000000,0.0000000,0.0514608,0.0000000,0.0000000,0.0071114,0.0071114,0.0000000,0.0000000,0.0019729,0.0000000,0.0000000,0.0000000,0.0071114,0.0000000,0.0000000,0.0019729,0.0000000,0.0000000,0.0000000,0.0071114,0.0000000,0.0000000,0.0019729
63.0610200,1.1002500,,-0.9866966,-0.1625568,-0.0003811,0.0022160,0.0012201,0.0019220,0.0035339,,,,1.1375118,-7.1476393,-21.3477974,0.0000000,0.0000000,0.0000000,0.0220050,0.0517738,0.0000000,0.0000000,0.0071549,0.0000000,0.0000000,0.0000000,0.0517738,0.0000000,0.0000000,0.0071549,0.0000000,0.0000000,0.0000000,0.0517738,0.0000000,0.0000000,0.0071549,0.0071549,0.0000000,0.0000000,0.0019789,0.0000000,0.0000000,0.0000000,0.0071549,0.0000000,0.0000000,0.0019789,0.0000000,0.0000000,0.0000000,0.0071549,0.0000000,0.0000000,0.0019789
63.0749750,0.9995500,,-0.9866965,-0.1625569,-0.0004040,0.0022370,0.0025098,0.0018994,0.0027435,,,,1.1375118,-7.1476393,-21.3477974,0.0000000,0.0000000,0.0000000,0.0199910,0.0520599,0.0000000,0.0000000,0.0071945,0.0000000,0.0000000,0.0000000,0.0520599,0.0000000,0.0000000,0.0071945,0.0000000,0.0000000,0.0000000,0.0520599,0.0000000,0.0000000,0.0071945,0.0071945,0.0000000,0.0000000,0.0019844,0.0000000,0.0000000,0.0000000,0.0071945,0.0000000,0.0000000,0.0019844,0.0000000,0.0000000,0.0000000,0.0071945,0.0000000,0.0000000,0.0019844
63.0949270,1.0000000,,-0.9866965,-0.1625569,-0.0004072,0.0022494,-0.0026895,-0.0024988,0.0035690,,,,1.1375118,-7.1476393,-21.3477974,0.0000000,0.0000000,0.0000000,0.0200000,0.0523476,0.0000000,0.0000000,0.0072343,0.0000000,0.0000000,0.0000000,0.0523476,0.0000000,0.0000000,0.0072343,0.0000000,0.0000000,0.0000000,0.0523476,0.0000000,0.0000000,0.0072343,0.0072343,0.0000000,0.0000000,0.0019899,0.0000000,0.0000000,0.0000000,0.0072343,0.0000000,0.0000000,0.0019899,0.0000000,0.0000000,0.0000000,0.0072343,0.0000000,0.0000000,0.0019899
63.1148710,1.0000000,,-0.9866965,-0.1625569,-0.0004189,0.0022549,0.0005550,-0.0061627,0.0012962,,,,1.1375118,-7.1476393,-21.3477974,0.0000000,0.0000000,0.0000000,0.0200000,0.0526370,0.0000000,0.0000000,0.0072741,0.0000000,0.0000000,0.0000000,0.0526370,0.0000000,0.0000000,0.0072741,0.0000000,0.0000000,0.0000000,0.0526370,0.0000000,0.0000000,0.0072741,0.0072741,0.0000000,0.0000000,0.0019954,0.0000000,0.0000000,0.0000000,0.0072741,0.0000000,0.0000000,0.0019954,0.0000000,0.0000000,0.0000000,0.0072741,0.0000000,0.0000000,0.0019954
63.1347360,1.0007499,,-0.9866965,-0.1625569,-0.0004285,0.0022715,0.0026502,-0.0030890,0.0038219,,,,1.1375118,-7.1476393,-21.3477974,0.0000000,0.0000000,0.0000000,0.0200150,0.0529282,0.0000000,0.0000000,0.0073141,0.0000000,0.0000000,0.0000000,0.0529282,0.0000000,0.0000000,0.0073141,0.0000000,0.0000000,0.0000000,0.0529282,0.0000000,0.0000000,0.0073141,0.0073141,0.0000000,0.0000000,0.0020009,0.0000000,0.0000000,0.0000000,0.0073141,0.0000000,0.0000000,0.0020009,0.0000000,0.0000000,0.0000000,0.0073141,0.0000000,0.0000000,0.0020009
63.1509490,,1.0200399,-0.9866965,-0.1625569,-0.0004285,0.0022715,,,,0.0000000,0.0000000,0.0000000,1.1375118,-7.1476393,-21.3477974,0.0000000,0.0000000,0.0000000,0.1020040,0.0514772,0.0000000,0.0000000,0.0071136,0.0000000,0.0000000,0.0000000,0.0514772,0.0000000,0.0000000,0.0071136,0.0000000,0.0000000,0.0000000,0.0514772,0.0000000,0.0000000,0.0071136,0.0071136,0.0000000,0.0000000,0.0019732,0.0000000,0.0000000,0.0000000,0.0071136,0.0000000,0.0000000,0.0019732,0.0000000,0.0000000,0.0000000,0.0071136,0.0000000,0.0000000,0.0019732
63.1636310,1.0993000,,-0.9866965,-0.1625569,-0.0004335,0.0022730,0.0007682,0.0055127,0.0033758,,,,1.1375118,-7.1476393,-21.3477974,0.0000000,0.0000000,0.0000000,0.0219860,0.0517900,0.0000000,0.0000000,0.0071570,0.0000000,0.0000000,0.0000000,0.0517900,0.0000000,0.0000000,0.0071570,0.0000000,0.0000000,0.0000000,0.0517900,0.0000000,0.0000000,0.0071570,0.0071570,0.0000000,0.0000000,0.0019792,0.0000000,0.0000000,0.0000000,0.0071570,0.0000000,0.0000000,0.0019792,0.0000000,0.0000000,0.0000000,0.0071570,0.0000000,0.0000000,0.0019792
63.1766670,0.9999000,,-0.9866965,-0.1625570,-0.0004643,0.0022624,0.0053890,0.0063651,0.0014438,,,,1.1375118,-7.1476393,-21.3477974,0.0000000,0.0000000,0.0000000,0.0199980,0.0520763,0.0000000,0.0000000,0.0071967,0.0000000,0.0000000,0.0000000,0.0520763,0.0000000,0.0000000,0.0071967,0.0000000,0.0000000,0.0000000,0.0520763,0.0000000,0.0000000,0.0071967,0.0071967,0.0000000,0.0000000,0.0019847,0.0000000,0.0000000,0.0000000,0.0071967,0.0000000,0.0000000,0.0019847,0.0000000,0.0000000,0.0000000,0.0071967,0.0000000,0.0000000,0.0019847
63.1991900,1.0500500,,-0.9866965,-0.1625570,-0.0004846,0.0022532,0.0040296,0.0048305,0.0048723,,,,1.1375118,-7.1476393,-21.3477974,0.0000000,0.0000000,0.0000000,0.0210010,0.0523785,0.0000000,0.0000000,0.0072384,0.0000000,0.0000000,0.0000000,0.0523785,0.0000000,0.0000000,0.0072384,0.0000000,0.0000000,0.0000000,0.0523785,0.0000000,0.0000000,0.0072384,0.0072384,0.0000000,0.0000000,0.0019905,0.0000000,0.0000000,0.0000000,0.0072384,0.0000000,0.0000000,0.0019905,0.0000000,0.0000000,0.0000000,0.0072384,0.0000000,0.0000000,0.0019905
63.2178570,0.9999500,,-0.9866965,-0.1625571,-0.0005065,0.0022223,0.0072409,0.0062070,0.0065865,,,,1.1375118,-7.1476393,-21.3477974,0.0000000,0.0000000,0.0000000,0.0199990,0.0526681,0.0000000,0.0000000,0.0072783,0.0000000,0.0000000,0.0000000,0.0526681,0.0000000,0.0000000,0.0072783,0.0000000,0.0000000,0.0000000,0.0526681,0.0000000,0.0000000,0.0072783,0.0072783,0.0000000,0.0000000,0.0019960,0.0000000,0.0000000,0.0000000,0.0072783,0.0000000,0.0000000,0.0019960,0.0000000,0.0000000,0.0000000,0.0072783,0.0000000,0.0000000,0.0019960
63.2377960,1.0000501,,-0.9866965,-0.1625572,-0.0005403,0.0022123,0.0063594,0.0046981,0.0096409,,,,1.1375118,-7.1476393,-21.3477974,0.0000000,0.0000000,0.0000000,0.0200010,0.0529592,0.0000000,0.0000000,0.0073183,0.0000000,0.0000000,0.0000000,0.0529592,0.0000000,0.0000000,0.0073183,0.0000000,0.0000000,0.0000000,0.0529592,0.0000000,0.0000000,0.0073183,0.0073183,0.0000000,0.0000000,0.0020015,0.0000000,0.0000000,0.0000000,0.0073183,0.0000000,0.0000000,0.0020015,0.0000000,0.0000000,0.0000000,0.0073183,0.0000000,0.0000000,0.0020015
63.2536290,,1.0001199,-0.9866965,-0.1625572,-0.0005403,0.0022123,,,,0.0000000,0.0000000,0.0000000,1.1375118,-7.1476393,-21.3477974,0.0000000,0.0000000,0.0000000,0.1000120,0.0515065,0.0000000,0.0000000,0.0071175,0.0000000,0.0000000,0.0000000,0.0515065,0.0000000,0.0000000,0.0071175,0.0000000,0.0000000,0.0000000,0.0515065,0.0000000,0.0000000,0.0071175,0.0071175,0.0000000,0.0000000,0.0019737,0.0000000,0.0000000,0.0000000,0.0071175,0.0000000,0.0000000,0.0019737,0.0000000,0.0000000,0.0000000,0.0071175,0.0000000,0.0000000,0.0019737
63.2673550,1.0006500,,-0.9866965,-0.1625572,-0.0005503,0.0022086,0.0049497,-0.0018929,0.0021349,,,,1.1375118,-7.1476393,-21.3477974,0.0000000,0.0000000,0.0000000,0.0200130,0.0517914,0.0000000,0.0000000,0.0071571,0.0000000,0.0000000,0.0000000,0.0517914,0.0000000,0.0000000,0.0071571,0.0000000,0.0000000,0.0000000,0.0517914,0.0000000,0.0000000,0.0071571,0.0071571,0.0000000,0.0000000,0.0019792,0.0000000,0.0000000,0.0000000,0.0071571,0.0000000,0.0000000,0.0019792,0.0000000,0.0000000,0.0000000,0.0071571,0.0000000,0.0000000,0.0019792
63.2808660,1.1493500,,-0.9866965,-0.1625572,-0.0005688,0.0022140,0.0083724,-0.0005574,-0.0001532,,,,1.1375118,-7.1476393,-21.3477974,0.0000000,0.0000000,0.0000000,0.0229870,0.0521205,0.0000000,0.0000000,0.0072026,0.0000000,0.0000000,0.0000000,0.0521205,0.0000000,0.0000000,0.0072026,0.0000000,0.0000000,0.0000000,0.0521205,0.0000000,0.0000000,0.0072026,0.0072026,0.0000000,0.0000000,0.0019855,0.0000000,0.0000000,0.0000000,0.0072026,0.0000000,0.0000000,0.0019855,0.0000000,0.0000000,0.0000000,0.0072026,0.0000000,0.0000000,0.0019855
63.3008630,0.9999500,,-0.9866965,-0.1625573,-0.0005660,0.0021954,-0.0013604,0.0015371,-0.0059360,,,,1.1375118,-7.1476393,-21.3477974,0.0000000,0.0000000,0.0000000,0.0199990,0.0524085,0.0000000,0.0000000,0.0072424,0.0000000,0.0000000,0.0000000,0.0524085,0.0000000,0.0000000,0.0072424,0.0000000,0.0000000,0.0000000,0.0524085,0.0000000,0.0000000,0.0072424,0.0072424,0.0000000,0.0000000,0.0019910,0.0000000,0.0000000,0.0000000,0.0072424,0.0000000,0.0000000,0.0019910,0.0000000,0.0000000,0.0000000,0.0072424,0.0000000,0.0000000,0.0019910
63.3209120,1.0000000,,-0.9866965,-0.1625573,-0.0005669,0.0021933,0.0008457,-0.0017949,-0.0102922,,,,1.1375118,-7.1476393,-21.3477974,0.0000000,0.0000000,0.0000000,0.0200000,0.0526982,0.0000000,0.0000000,0.0072823,0.0000000,0.0000000,0.0000000,0.0526982,0.0000000,0.0000000,0.0072823,0.0000000,0.0000000,0.0000000,0.0526982,0.0000000,0.0000000,0.0072823,0.0072823,0.0000000,0.0000000,0.0019965,0.0000000,0.0000000,0.0000000,0.0072823,0.0000000,0.0000000,0.0019965,0.0000000,0.0000000,0.0000000,0.0072823,0.0000000,0.0000000,0.0019965
63.3410470,,0.9998400,-0.9866965,-0.1625573,-0.0005646,0.0022108,,,,0.0000000,0.0000000,0.0000000,1.1375118,-7.1476393,-21.3477974,0.0000000,0.0000000,0.0000000,0.0999840,0.0512597,0.0000000,0.0000000,0.0070835,0.0000000,0.0000000,0.0000000,0.0512597,0.0000000,0.0000000,0.0070835,0.0000000,0.0000000,0.0000000,0.0512597,0.0000000,0.0000000,0.0070835,0.0070835,0.0000000,0.0000000,0.0019690,0.0000000,0.0000000,0.0000000,0.0070835,0.0000000,0.0000000,0.0019690,0.0000000,0.0000000,0.0000000,0.0070835,0.0000000,0.0000000,0.0019690
63.3538790,1.0007000,,-0.9866965,-0.1625573,-0.0005646,0.0022108,0.0021929,-0.0051318,-0.0070992,,,,1.1375118,-7.1476393,-21.3477974,0.0000000,0.0000000,0.0000000,0.0200140,0.0515432,0.0000000,0.0000000,0.0071229,0.0000000,0.0000000,0.0000000,0.0515432,0.0000000,0.0000000,0.0071229,0.0000000,0.0000000,0.0000000,0.0515432,0.0000000,0.0000000,0.0071229,0.0071229,0.0000000,0.0000000,0.0019745,0.0000000,0.0000000,0.0000000,0.0071229,0.0000000,0.0000000,0.0019745,0.0000000,0.0000000,0.0000000,0.0071229,0.0000000,0.0000000,0.0019745
63.3667300,1.2993001,,-0.9866965,-0.1625572,-0.0005625,0.0022156,0.0011651,-0.0026574,0.0025539,,,,1.1375118,-7.1476393,-21.3477974,0.0000000,0.0000000,0.0000000,0.0259860,0.0519134,0.0000000,0.0000000,0.0071743,0.0000000,0.0000000,0.0000000,0.0519134,0.0000000,0.0000000,0.0071743,0.0000000,0.0000000,0.0000000,0.0519134,0.0000000,0.0000000,0.0071743,0.0071743,0.0000000,0.0000000,0.0019816,0.0000000,0.0000000,0.0000000,0.0071743,0.0000000,0.0000000,0.0019816,0.0000000,0.0000000,0.0000000,0.0071743,0.0000000,0.0000000,0.0019816
63.3871430,1.0001501,,-0.9866965,-0.1625572,-0.0005578,0.0022298,0.0018719,0.0022647,-0.0011645,,,,1.1375118,-7.1476393,-21.3477974,0.0000000,0.0000000,0.0000000,0.0200030,0.0522004,0.0000000,0.0000000,0.0072140,0.0000000,0.0000000,0.0000000,0.0522004,0.0000000,0.0000000,0.0072140,0.0000000,0.0000000,0.0000000,0.0522004,0.0000000,0.0000000,0.0072140,0.0072140,0.0000000,0.0000000,0.0019871,0.0000000,0.0000000,0.0000000,0.0072140,0.0000000,0.0000000,0.0019871,0.0000000,0.0000000,0.0000000,0.0072140,0.0000000,0.0000000,0.0019871
63.4068630,0.9999000,,-0.9866964,-0.1625572,-0.0005749,0.0022722,0.0055975,0.0025896,0.0033240,,,,1.1375118,-7.1476393,-21.3477974,0.0000000,0.0000000,0.0000000,0.0199980,0.0524889,0.0000000,0.0000000,0.0072538,0.0000000,0.0000000,0.0000000,0.0524889,0.0000000,0.0000000,0.0072538,0.0000000,0.0000000,0.0000000,0.0524889,0.0000000,0.0000000,0.0072538,0.0072538,0.0000000,0.0000000,0.0019926,0.0000000,0.0000000,0.0000000,0.0072538,0.0000000,0.0000000,0.0019926,0.0000000,0.0000000,0.0000000,0.0072538,0.0000000,0.0000000,0.0019926
63.4268620,1.0001000,,-0.9866963,-0.1625572,-0.0005670,0.0022987,0.0016315,0.0091149,0.0050800,,,,1.1375118,-7.1476393,-21.3477974,0.0000000,0.0000000,0.0000000,0.0200020,0.0527791,0.0000000,0.0000000,0.0072937,0.0000000,0.0000000,0.0000000,0.0527791,0.0000000,0.0000000,0.0072937,0.0000000,0.0000000,0.0000000,0.0527791,0.0000000,0.0000000,0.0072937,0.0072937,0.0000000,0.0000000,0.0019981,0.0000000,0.0000000,0.0000000,0.0072937,0.0000000,0.0000000,0.0019981,0.0000000,0.0000000,0.0000000,0.0072937,0.0000000,0.0000000,0.0019981
63.4427020,,1.0000199,-0.9866963,-0.1625572,-0.0005670,0.0022987,,,,0.0000000,0.0000000,0.0000000,1.1375118,-7.1476393,-21.3477974,0.0000000,0.0000000,0.0000000,0.1000020,0.0513362,0.0000000,0.0000000,0.0070943,0.0000000,0.0000000,0.0000000,0.0513362,0.0000000,0.0000000,0.0070943,0.0000000,0.0000000,0.0000000,0.0513362,0.0000000,0.0000000,0.0070943,0.0070943,0.0000000,0.0000000,0.0019706,0.0000000,0.0000000,0.0000000,0.0070943,0.0000000,0.0000000,0.0019706,0.0000000,0.0000000,0.0000000,0.0070943,0.0000000,0.0000000,0.0019706
63.4564170,1.0002999,,-0.9866963,-0.1625571,-0.0005408,0.0023023,-0.0022589,0.0077313,0.0027841,,,,1.1375118,-7.1476393,-21.3477974,0.0000000,0.0000000,0.0000000,0.0200060,0.0516200,0.0000000,0.0000000,0.0071338,0.0000000,0.0000000,0.0000000,0.0516200,0.0000000,0.0000000,0.0071338,0.0000000,0.0000000,0.0000000,0.0516200,0.0000000,0.0000000,0.0071338,0.0071338,0.0000000,0.0000000,0.0019760,0.0000000,0.0000000,0.0000000,0.0071338,0.0000000,0.0000000,0.0019760,0.0000000,0.0000000,0.0000000,0.0071338,0.0000000,0.0000000,0.0019760
63.4697640,1.1495500,,-0.9866962,-0.1625570,-0.0005051,0.0023261,-0.0009921,0.0000052,0.0062749,,,,1.1375118,-7.1476393,-21.3477974,0.0000000,0.0000000,0.0000000,0.0229910,0.0519480,0.0000000,0.0000000,0.0071793,0.0000000,0.0000000,0.0000000,0.0519480,0.0000000,0.0000000,0.0071793,0.0000000,0.0000000,0.0000000,0.0519480,0.0000000,0.0000000,0.0071793,0.0071793,0.0000000,0.0000000,0.0019824,0.0000000,0.0000000,0.0000000,0.0071793,0.0000000,0.0000000,0.0019824,0.0000000,0.0000000,0.0000000,0.0071793,0.0000000,0.0000000,0.0019824
63.4909100,1.0501500,,-0.9866962,-0.1625570,-0.0005062,0.0023360,0.0037535,-0.0011800,0.0004519,,,,1.1375118,-7.1476393,-21.3477974,0.0000000,0.0000000,0.0000000,0.0210030,0.0522496,0.0000000,0.0000000,0.0072210,0.0000000,0.0000000,0.0000000,0.0522496,0.0000000,0.0000000,0.0072210,0.0000000,0.0000000,0.0000000,0.0522496,0.0000000,0.0000000,0.0072210,0.0072210,0.0000000,0.0000000,0.0019881,0.0000000,0.0000000,0.0000000,0.0072210,0.0000000,0.0000000,0.0019881,0.0000000,0.0000000,0.0000000,0.0072210,0.0000000,0.0000000,0.0019881
63.5106880,1.0005500,,-0.9866962,-0.1625571,-0.0005360,0.0023349,0.0060729,0.0040639,0.0002259,,,,1.1375118,-7.1476393,-21.3477974,0.0000000,0.0000000,0.0000000,0.0200110,0.0525386,0.0000000,0.0000000,0.0072608,0.0000000,0.0000000,0.0000000,0.0525386,0.0000000,0.0000000,0.0072608,0.0000000,0.0000000,0.0000000,0.0525386,0.0000000,0.0000000,0.0072608,0.0072608,0.0000000,0.0000000,0.0019936,0.0000000,0.0000000,0.0000000,0.0072608,0.0000000,0.0000000,0.0019936,0.0000000,0.0000000,0.0000000,0.0072608,0.0000000,0.0000000,0.0019936
63.5317630,1.0493500,,-0.9866962,-0.1625572,-0.0005805,0.0023451,0.0017929,0.0069453,0.0023102,,,,1.1375118,-7.1476393,-21.3477974,0.0000000,0.0000000,0.0000000,0.0209870,0.0528434,0.0000000,0.0000000,0.0073027,0.0000000,0.0000000,0.0000000,0.0528434,0.0000000,0.0000000,0.0073027,0.0000000,0.0000000,0.0000000,0.0528434,0.0000000,0.0000000,0.0073027,0.0073027,0.0000000,0.0000000,0.0019994,0.0000000,0.0000000,0.0000000,0.0073027,0.0000000,0.0000000,0.0019994,0.0000000,0.0000000,0.0000000,0.0073027,0.0000000,0.0000000,0.0019994
63.5477870,,1.0000100,-0.9866962,-0.1625572,-0.0005805,0.0023451,,,,0.0000000,0.0000000,0.0000000,1.1375118,-7.1476393,-21.3477974,0.0000000,0.0000000,0.0000000,0.1000010,0.0513970,0.0000000,0.0000000,0.0071028,0.0000000,0.0000000,0.0000000,0.0513970,0.0000000,0.0000000,0.0071028,0.0000000,0.0000000,0.0000000,0.0513970,0.0000000,0.0000000,0.0071028,0.0071028,0.0000000,0.0000000,0.0019717,0.0000000,0.0000000,0.0000000,0.0071028,0.0000000,0.0000000,0.0019717,0.0000000,0.0000000,0.0000000,0.0071028,0.0000000,0.0000000,0.0019717
63.5613820,1.1006001,,-0.9866961,-0.1625573,-0.0006132,0.0023424,0.0015907,0.0044568,0.0035965,,,,1.1375118,-7.1476393,-21.3477974,0.0000000,0.0000000,0.0000000,0.0220120,0.0517097,0.0000000,0.0000000,0.0071463,0.0000000,0.0000000,0.0000000,0.0517097,0.0000000,0.0000000,0.0071463,0.0000000,0.0000000,0.0000000,0.0517097,0.0000000,0.0000000,0.0071463,0.0071463,0.0000000,0.0000000,0.0019778,0.0000000,0.0000000,0.0000000,0.0071463,0.0000000,0.0000000,0.0019778,0.0000000,0.0000000,0.0000000,0.0071463,0.0000000,0.0000000,0.0019778
63.5749730,1.0500000,,-0.9866961,-0.1625573,-0.0006482,0.0023464,0.0002308,0.0015113,0.0003334,,,,1.1375118,-7.1476393,-21.3477974,0.0000000,0.0000000,0.0000000,0.0210000,0.0520098,0.0000000,0.0000000,0.0071879,0.0000000,0.0000000,0.0000000,0.0520098,0.0000000,0.0000000,0.0071879,0.0000000,0.0000000,0.0000000,0.0520098,0.0000000,0.0000000,0.0071879,0.0071879,0.0000000,0.0000000,0.0019835,0.0000000,0.0000000,0.0000000,0.0071879,0.0000000,0.0000000,0.0019835,0.0000000,0.0000000,0.0000000,0.0071879,0.0000000,0.0000000,0.0019835
63.5946880,1.0001501,,-0.9866961,-0.1625574,-0.0006751,0.0023354,-0.0019293,0.0039142,-0.0017864,,,,1.1375118,-7.1476393,-21.3477974,0.0000000,0.0000000,0.0000000,0.0200030,0.0522974,0.0000000,0.0000000,0.0072276,0.0000000,0.0000000,0.0000000,0.0522974,0.0000000,0.0000000,0.0072276,0.0000000,0.0000000,0.0000000,0.0522974,0.0000000,0.0000000,0.0072276,0.0072276,0.0000000,0.0000000,0.0019890,0.0000000,0.0000000,0.0000000,0.0072276,0.0000000,0.0000000,0.0019890,0.0000000,0.0000000,0.0000000,0.0072276,0.0000000,0.0000000,0.0019890
63.6156470,1.0493001,,-0.9866961,-0.1625575,-0.0006863,0.0023317,0.0013928,-0.0004919,-0.0011373,,,,1.1375118,-7.1476393,-21.3477974,0.0000000,0.0000000,0.0000000,0.0209860,0.0526007,0.0000000,0.0000000,0.0072694,0.0000000,0.0000000,0.0000000,0.0526007,0.0000000,0.0000000,0.0072694,0.0000000,0.0000000,0.0000000,0.0526007,0.0000000,0.0000000,0.0072694,0.0072694,0.0000000,0.0000000,0.0019948,0.0000000,0.0000000,0.0000000,0.0072694,0.0000000,0.0000000,0.0019948,0.0000000,0.0000000,0.0000000,0.0072694,0.0000000,0.0000000,0.0019948
63.6368840,1.0498999,,-0.9866961,-0.1625575,-0.0007015,0.0023123,-0.0040414,0.0011731,-0.0054515,,,,1.1375118,-7.1476393,-21.3477974,0.0000000,0.0000000,0.0000000,0.0209980,0.0529060,0.0000000,0.0000000,0.0073114,0.0000000,0.0000000,0.0000000,0.0529060,0.0000000,0.0000000,0.0073114,0.0000000,0.0000000,0.0000000,0.0529060,0.0000000,0.0000000,0.0073114,0.0073114,0.0000000,0.0000000,0.0020006,0.0000000,0.0000000,0.0000000,0.0073114,0.0000000,0.0000000,0.0020006,0.0000000,0.0000000,0.0000000,0.0073114,0.0000000,0.0000000,0.0020006
63.6528490,,1.0000199,-0.9866961,-0.1625575,-0.0007015,0.0023123,,,,0.0000000,0.0000000,0.0000000,1.1375118,-7.1476393,-21.3477974,0.0000000,0.0000000,0.0000000,0.1000020,0.0514562,0.0000000,0.0000000,0.0071110,0.0000000,0.0000000,0.0000000,0.0514562,0.0000000,0.0000000,0.0071110,0.0000000,0.0000000,0.0000000,0.0514562,0.0000000,0.0000000,0.0071110,0.0071110,0.0000000,0.0000000,0.0019729,0.0000000,0.0000000,0.0000000,0.0071110,0.0000000,0.0000000,0.0019729,0.0000000,0.0000000,0.0000000,0.0071110,0.0000000,0.0000000,0.0019729
63.6667510,1.0000000,,-0.9866962,-0.1625576,-0.0007086,0.0022831,-0.0004033,0.0029440,-0.0015050,,,,1.1375118,-7.1476393,-21.3477974,0.0000000,0.0000000,0.0000000,0.0200000,0.0517407,0.0000000,0.0000000,0.0071505,0.0000000,0.0000000,0.0000000,0.0517407,0.0000000,0.0000000,0.0071505,0.0000000,0.0000000,0.0000000,0.0517407,0.0000000,0.0000000,0.0071505,0.0071505,0.0000000,0.0000000,0.0019784,0.0000000,0.0000000,0.0000000,0.0071505,0.0000000,0.0000000,0.0019784,0.0000000,0.0000000,0.0000000,0.0071505,0.0000000,0.0000000,0.0019784
63.6797680,1.1500000,,-0.9866962,-0.1625576,-0.0006966,0.0022428,-0.0014758,-0.0003667,-0.0024615,,,,1.1375118,-7.1476393,-21.3477974,0.0000000,0.0000000,0.0000000,0.0230000,0.0520696,0.0000000,0.0000000,0.0071961,0.0000000,0.0000000,0.0000000,0.0520696,0.0000000,0.0000000,0.0071961,0.0000000,0.0000000,0.0000000,0.0520696,0.0000000,0.0000000,0.0071961,0.0071961,0.0000000,0.0000000,0.0019847,0.0000000,0.0000000,0.0000000,0.0071961,0.0000000,0.0000000,0.0019847,0.0000000,0.0000000,0.0000000,0.0071961,0.0000000,0.0000000,0.0019847
63.7008770,1.0505000,,-0.9866963,-0.1625575,-0.0006752,0.0022347,-0.0051553,-0.0022356,0.0024314,,,,1.1375118,-7.1476393,-21.3477974,0.0000000,0.0000000,0.0000000,0.0210100,0.0523720,0.0000000,0.0000000,0.0072378,0.0000000,0.0000000,0.0000000,0.0523720,0.0000000,0.0000000,0.0072378,0.0000000,0.0000000,0.0000000,0.0523720,0.0000000,0.0000000,0.0072378,0.0072378,0.0000000,0.0000000,0.0019904,0.0000000,0.0000000,0.0000000,0.0072378,0.0000000,0.0000000,0.0019904,0.0000000,0.0000000,0.0000000,0.0072378,0.0000000,0.0000000,0.0019904
63.7208520,0.9995000,,-0.9866964,-0.1625575,-0.0006479,0.0022366,-0.0076970,-0.0019342,0.0029247,,,,1.1375118,-7.1476393,-21.3477974,0.0000000,0.0000000,0.0000000,0.0199900,0.0526613,0.0000000,0.0000000,0.0072777,0.0000000,0.0000000,0.0000000,0.0526613,0.0000000,0.0000000,0.0072777,0.0000000,0.0000000,0.0000000,0.0526613,0.0000000,0.0000000,0.0072777,0.0072777,0.0000000,0.0000000,0.0019959,0.0000000,0.0000000,0.0000000,0.0072777,0.0000000,0.0000000,0.0019959,0.0000000,0.0000000,0.0000000,0.0072777,0.0000000,0.0000000,0.0019959
63.7421230,,1.0099499,-0.9866964,-0.1625575,-0.0006410,0.0022444,,,,0.0000000,0.0000000,0.0000000,1.1375118,-7.1476393,-21.3477974,0.0000000,0.0000000,0.0000000,0.1009950,0.0512247,0.0000000,0.0000000,0.0070791,0.0000000,0.0000000,0.0000000,0.0512247,0.0000000,0.0000000,0.0070791,0.0000000,0.0000000,0.0000000,0.0512247,0.0000000,0.0000000,0.0070791,0.0070791,0.0000000,0.0000000,0.0019685,0.0000000,0.0000000,0.0000000,0.0070791,0.0000000,0.0000000,0.0019685,0.0000000,0.0000000,0.0000000,0.0070791,0.0000000,0.0000000,0.0019685
63.7567710,1.0000501,,-0.9866964,-0.1625575,-0.0006410,0.0022444,-0.0038561,-0.0049496,0.0026830,,,,1.1375118,-7.1476393,-21.3477974,0.0000000,0.0000000,0.0000000,0.0200010,0.0515079,0.0000000,0.0000000,0.0071186,0.0000000,0.0000000,0.0000000,0.0515079,0.0000000,0.0000000,0.0071186,0.0000000,0.0000000,0.0000000,0.0515079,0.0000000,0.0000000,0.0071186,0.0071186,0.0000000,0.0000000,0.0019740,0.0000000,0.0000000,0.0000000,0.0071186,0.0000000,0.0000000,0.0019740,0.0000000,0.0000000,0.0000000,0.0071186,0.0000000,0.0000000,0.0019740
63.7699890,1.4501001,,-0.9866964,-0.1625575,-0.0006330,0.0022482,0.0046637,-0.0037718,-0.0042737,,,,1.1375118,-7.1476393,-21.3477974,0.0000000,0.0000000,0.0000000,0.0290020,0.0519208,0.0000000,0.0000000,0.0071759,0.0000000,0.0000000,0.0000000,0.0519208,0.0000000,0.0000000,0.0071759,0.0000000,0.0000000,0.0000000,0.0519208,0.0000000,0.0000000,0.0071759,0.0071759,0.0000000,0.0000000,0.0019819,0.0000000,0.0000000,0.0000000,0.0071759,0.0000000,0.0000000,0.0019819,0.0000000,0.0000000,0.0000000,0.0071759,0.0000000,0.0000000,0.0019819
63.7899330,0.9999000,,-0.9866963,-0.1625574,-0.0006240,0.0022746,0.0008670,-0.0043502,0.0020135,,,,1.1375118,-7.1476393,-21.3477974,0.0000000,0.0000000,0.0000000,0.0199980,0.0522078,0.0000000,0.0000000,0.0072156,0.0000000,0.0000000,0.0000000,0.0522078,0.0000000,0.0000000,0.0072156,0.0000000,0.0000000,0.0000000,0.0522078,0.0000000,0.0000000,0.0072156,0.0072156,0.0000000,0.0000000,0.0019874,0.0000000,0.0000000,0.0000000,0.0072156,0.0000000,0.0000000,0.0019874,0.0000000,0.0000000,0.0000000,0.0072156,0.0000000,0.0000000,0.0019874
63.8096050,1.0001000,,-0.9866964,-0.1625573,-0.0005825,0.0022719,-0.0109648,-0.0024650,-0.0007022,,,,1.1375118,-7.1476393,-21.3477974,0.0000000,0.0000000,0.0000000,0.0200020,0.0524965,0.0000000,0.0000000,0.0072554,0.0000000,0.0000000,0.0000000,0.0524965,0.0000000,0.0000000,0.0072554,0.0000000,0.0000000,0.0000000,0.0524965,0.0000000,0.0000000,0.0072554,0.0072554,0.0000000,0.0000000,0.0019929,0.0000000,0.0000000,0.0000000,0.0072554,0.0000000,0.0000000,0.0019929,0.0000000,0.0000000,0.0000000,0.0072554,0.0000000,0.0000000,0.0019929
63.8297850,1.0005001,,-0.9866964,-0.1625573,-0.0005623,0.0022742,-0.0061385,-0.0039562,-0.0020601,,,,1.1375118,-7.1476393,-21.3477974,0.0000000,0.0000000,0.0000000,0.0200100,0.0527868,0.0000000,0.0000000,0.0072953,0.0000000,0.0000000,0.0000000,0.0527868,0.0000000,0.0000000,0.0072953,0.0000000,0.0000000,0.0000000,0.0527868,0.0000000,0.0000000,0.0072953,0.0072953,0.0000000,0.0000000,0.0019984,0.0000000,0.0000000,0.0000000,0.0072953,0.0000000,0.0000000,0.0019984,0.0000000,0.0000000,0.0000000,0.0072953,0.0000000,0.0000000,0.0019984
63.8460350,,1.0000299,-0.9866964,-0.1625573,-0.0005623,0.0022742,,,,0.0000000,0.0000000,0.0000000,1.1375118,-7.1476393,-21.3477974,0.0000000,0.0000000,0.0000000,0.1000030,0.0513435,0.0000000,0.0000000,0.0070959,0.0000000,0.0000000,0.0000000,0.0513435,0.0000000,0.0000000,0.0070959,0.0000000,0.0000000,0.0000000,0.0513435,0.0000000,0.0000000,0.0070959,0.0070959,0.0000000,0.0000000,0.0019708,0.0000000,0.0000000,0.0000000,0.0070959,0.0000000,0.0000000,0.0019708,0.0000000,0.0000000,0.0000000,0.0070959,0.0000000,0.0000000,0.0019708
63.8586960,1.0994500,,-0.9866964,-0.1625573,-0.0005560,0.0022654,-0.0049537,-0.0039846,-0.0032273,,,,1.1375118,-7.1476393,-21.3477974,0.0000000,0.0000000,0.0000000,0.0219890,0.0516555,0.0000000,0.0000000,0.0071392,0.0000000,0.0000000,0.0000000,0.0516555,0.0000000,0.0000000,0.0071392,0.0000000,0.0000000,0.0000000,0.0516555,0.0000000,0.0000000,0.0071392,0.0071392,0.0000000,0.0000000,0.0019769,0.0000000,0.0000000,0.0000000,0.0071392,0.0000000,0.0000000,0.0019769,0.0000000,0.0000000,0.0000000,0.0071392,0.0000000,0.0000000,0.0019769
63.8731740,0.9999000,,-0.9866964,-0.1625573,-0.0005667,0.0022541,-0.0009662,-0.0028010,0.0013160,,,,1.1375118,-7.1476393,-21.3477974,0.0000000,0.0000000,0.0000000,0.0199980,0.0519411,0.0000000,0.0000000,0.0071788,0.0000000,0.0000000,0.0000000,0.0519411,0.0000000,0.0000000,0.0071788,0.0000000,0.0000000,0.0000000,0.0519411,0.0000000,0.0000000,0.0071788,0.0071788,0.0000000,0.0000000,0.0019824,0.0000000,0.0000000,0.0000000,0.0071788,0.0000000,0.0000000,0.0019824,0.0000000,0.0000000,0.0000000,0.0071788,0.0000000,0.0000000,0.0019824
63.8918710,1.0000000,,-0.9866964,-0.1625573,-0.0005672,0.0022598,-0.0009180,-0.0046277,0.0018787,,,,1.1375118,-7.1476393,-21.3477974,0.0000000,0.0000000,0.0000000,0.0200000,0.0522282,0.0000000,0.0000000,0.0072185,0.0000000,0.0000000,0.0000000,0.0522282,0.0000000,0.0000000,0.0072185,0.0000000,0.0000000,0.0000000,0.0522282,0.0000000,0.0000000,0.0072185,0.0072185,0.0000000,0.0000000,0.0019878,0.0000000,0.0000000,0.0000000,0.0072185,0.0000000,0.0000000,0.0019878,0.0000000,0.0000000,0.0000000,0.0072185,0.0000000,0.0000000,0.0019878
63.9118400,1.0001501,,-0.9866964,-0.1625573,-0.0005510,0.0022503,0.0015857,-0.0043357,0.0009394,,,,1.1375118,-7.1476393,-21.3477974,0.0000000,0.0000000,0.0000000,0.0200030,0.0525170,0.0000000,0.0000000,0.0072584,0.0000000,0.0000000,0.0000000,0.0525170,0.0000000,0.0000000,0.0072584,0.0000000,0.0000000,0.0000000,0.0525170,0.0000000,0.0000000,0.0072584,0.0072584,0.0000000,0.0000000,0.0019933,0.0000000,0.0000000,0.0000000,0.0072584,0.0000000,0.0000000,0.0019933,0.0000000,0.0000000,0.0000000,0.0072584,0.0000000,0.0000000,0.0019933
63.9318530,1.0002501,,-0.9866964,-0.1625573,-0.0005370,0.0022335,-0.0022742,-0.0003063,0.0009580,,,,1.1375118,-7.1476393,-21.3477974,0.0000000,0.0000000,0.0000000,0.0200050,0.0528074,0.0000000,0.0000000,0.0072983,0.0000000,0.0000000,0.0000000,0.0528074,0.0000000,0.0000000,0.0072983,0.0000000,0.0000000,0.0000000,0.0528074,0.0000000,0.0000000,0.0072983,0.0072983,0.0000000,0.0000000,0.0019988,0.0000000,0.0000000,0.0000000,0.0072983,0.0000000,0.0000000,0.0019988,0.0000000,0.0000000,0.0000000,0.0072983,0.0000000,0.0000000,0.0019988
63.9479720,,1.0000499,-0.9866964,-0.1625573,-0.0005370,0.0022335,,,,0.0000000,0.0000000,0.0000000,1.1375118,-7.1476393,-21.3477974,0.0000000,0.0000000,0.0000000,0.1000050,0.0513629,0.0000000,0.0000000,0.0070987,0.0000000,0.0000000,0.0000000,0.0513629,0.0000000,0.0000000,0.0070987,0.0000000,0.0000000,0.0000000,0.0513629,0.0000000,0.0000000,0.0070987,0.0070987,0.0000000,0.0000000,0.0019712,0.0000000,0.0000000,0.0000000,0.0070987,0.0000000,0.0000000,0.0019712,0.0000000,0.0000000,0.0000000,0.0070987,0.0000000,0.0000000,0.0019712
63.9616150,1.0997500,,-0.9866964,-0.1625573,-0.0005541,0.0022359,0.0033108,-0.0009618,0.0056059,,,,1.1375118,-7.1476393,-21.3477974,0.0000000,0.0000000,0.0000000,0.0219950,0.0516752,0.0000000,0.0000000,0.0071421,0.0000000,0.0000000,0.0000000,0.0516752,0.0000000,0.0000000,0.0071421,0.0000000,0.0000000,0.0000000,0.0516752,0.0000000,0.0000000,0.0071421,0.0071421,0.0000000,0.0000000,0.0019773,0.0000000,0.0000000,0.0000000,0.0071421,0.0000000,0.0000000,0.0019773,0.0000000,0.0000000,0.0000000,0.0071421,0.0000000,0.0000000,0.0019773
63.9748000,1.0498999,,-0.9866964,-0.1625573,-0.0005801,0.0022541,-0.0002824,0.0011747,-0.0030564,,,,1.1375118,-7.1476393,-21.3477974,0.0000000,0.0000000,0.0000000,0.0209980,0.0519751,0.0000000,0.0000000,0.0071836,0.0000000,0.0000000,0.0000000,0.0519751,0.0000000,0.0000000,0.0071836,0.0000000,0.0000000,0.0000000,0.0519751,0.0000000,0.0000000,0.0071836,0.0071836,0.0000000,0.0000000,0.0019830,0.0000000,0.0000000,0.0000000,0.0071836,0.0000000,0.0000000,0.0019830,0.0000000,0.0000000,0.0000000,0.0071836,0.0000000,0.0000000,0.0019830
63.9949540,1.0003999,,-0.9866963,-0.1625574,-0.0005989,0.0022675,0.0010795,-0.0001909,0.0040870,,,,1.1375118,-7.1476393,-21.3477974,0.0000000,0.0000000,0.0000000,0.0200080,0.0522626,0.0000000,0.0000000,0.0072234,0.0000000,0.0000000,0.0000000,0.0522626,0.0000000,0.0000000,0.0072234,0.0000000,0.0000000,0.0000000,0.0522626,0.0000000,0.0000000,0.0072234,0.0072234,0.0000000,0.0000000,0.0019885,0.0000000,0.0000000,0.0000000,0.0072234,0.0000000,0.0000000,0.0019885,0.0000000,0.0000000,0.0000000,0.0072234,0.0000000,0.0000000,0.0019885
64.0148580,0.9996000,,-0.9866963,-0.1625574,-0.0006063,0.0022673,0.0046978,0.0037574,0.0037525,,,,1.1375118,-7.1476393,-21.3477974,0.0000000,0.0000000,0.0000000,0.0199920,0.0525514,0.0000000,0.0000000,0.0072632,0.0000000,0.0000000,0.0000000,0.0525514,0.0000000,0.0000000,0.0072632,0.0000000,0.0000000,0.0000000,0.0525514,0.0000000,0.0000000,0.0072632,0.0072632,0.0000000,0.0000000,0.0019940,0.0000000,0.0000000,0.0000000,0.0072632,0.0000000,0.0000000,0.0019940,0.0000000,0.0000000,0.0000000,0.0072632,0.0000000,0.0000000,0.0019940
64.0347730,1.0000000,,-0.9866964,-0.1625574,-0.0006061,0.0022542,-0.0008097,0.0013065,-0.0005652,,,,1.1375118,-7.1476393,-21.3477974,0.0000000,0.0000000,0.0000000,0.0200000,0.0528420,0.0000000,0.0000000,0.0073031,0.0000000,0.0000000,0.0000000,0.0528420,0.0000000,0.0000000,0.0073031,0.0000000,0.0000000,0.0000000,0.0528420,0.0000000,0.0000000,0.0073031,0.0073031,0.0000000,0.0000000,0.0019995,0.0000000,0.0000000,0.0000000,0.0073031,0.0000000,0.0000000,0.0019995,0.0000000,0.0000000,0.0000000,0.0073031,0.0000000,0.0000000,0.0019995
64.0522500,,1.0000100,-0.9866964,-0.1625574,-0.0006061,0.0022542,,,,0.0000000,0.0000000,0.0000000,1.1375118,-7.1476393,-21.3477974,0.0000000,0.0000000,0.0000000,0.1000010,0.0513956,0.0000000,0.0000000,0.0071032,0.0000000,0.0000000,0.0000000,0.0513956,0.0000000,0.0000000,0.0071032,0.0000000,0.0000000,0.0000000,0.0513956,0.0000000,0.0000000,0.0071032,0.0071032,0.0000000,0.0000000,0.0019719,0.0000000,0.0000000,0.0000000,0.0071032,0.0000000,0.0000000,0.0019719,0.0000000,0.0000000,0.0000000,0.0071032,0.0000000,0.0000000,0.0019719
64.0656140,1.0000501,,-0.9866963,-0.1625573,-0.0005836,0.0022784,-0.0008397,-0.0032683,-0.0041888,,,,1.1375118,-7.1476393,-21.3477974,0.0000000,0.0000000,0.0000000,0.0200010,0.0516798,0.0000000,0.0000000,0.0071427,0.0000000,0.0000000,0.0000000,0.0516798,0.0000000,0.0000000,0.0071427,0.0000000,0.0000000,0.0000000,0.0516798,0.0000000,0.0000000,0.0071427,0.0071427,0.0000000,0.0000000,0.0019774,0.0000000,0.0000000,0.0000000,0.0071427,0.0000000,0.0000000,0.0019774,0.0000000,0.0000000,0.0000000,0.0071427,0.0000000,0.0000000,0.0019774
64.0788760,1.2003000,,-0.9866963,-0.1625573,-0.0005754,0.0022783,0.0032957,0.0010133,-0.0064889,,,,1.1375118,-7.1476393,-21.3477974,0.0000000,0.0000000,0.0000000,0.0240060,0.0520227,0.0000000,0.0000000,0.0071903,0.0000000,0.0000000,0.0000000,0.0520227,0.0000000,0.0000000,0.0071903,0.0000000,0.0000000,0.0000000,0.0520227,0.0000000,0.0000000,0.0071903,0.0071903,0.0000000,0.0000000,0.0019839,0.0000000,0.0000000,0.0000000,0.0071903,0.0000000,0.0000000,0.0019839,0.0000000,0.0000000,0.0000000,0.0071903,0.0000000,0.0000000,0.0019839
64.1000140,1.0500500,,-0.9866964,-0.1625573,-0.0005607,0.0022702,0.0019683,0.0021622,-0.0049535,,,,1.1375118,-7.1476393,-21.3477974,0.0000000,0.0000000,0.0000000,0.0210010,0.0523247,0.0000000,0.0000000,0.0072320,0.0000000,0.0000000,0.0000000,0.0523247,0.0000000,0.0000000,0.0072320,0.0000000,0.0000000,0.0000000,0.0523247,0.0000000,0.0000000,0.0072320,0.0072320,0.0000000,0.0000000,0.0019897,0.0000000,0.0000000,0.0000000,0.0072320,0.0000000,0.0000000,0.0019897,0.0000000,0.0000000,0.0000000,0.0072320,0.0000000,0.0000000,0.0019897
64.1200860,0.9996000,,-0.9866964,-0.1625573,-0.0005448,0.0022788,0.0042419,-0.0087074,-0.0061388,,,,1.1375118,-7.1476393,-21.3477974,0.0000000,0.0000000,0.0000000,0.0199920,0.0526139,0.0000000,0.0000000,0.0072718,0.0000000,0.0000000,0.0000000,0.0526139,0.0000000,0.0000000,0.0072718,0.0000000,0.0000000,0.0000000,0.0526139,0.0000000,0.0000000,0.0072718,0.0072718,0.0000000,0.0000000,0.0019952,0.0000000,0.0000000,0.0000000,0.0072718,0.0000000,0.0000000,0.0019952,0.0000000,0.0000000,0.0000000,0.0072718,0.0000000,0.0000000,0.0019952
64.1441840,,1.0099100,-0.9866964,-0.1625573,-0.0005407,0.0022853,,,,0.0000000,0.0000000,0.0000000,1.1375118,-7.1476393,-21.3477974,0.0000000,0.0000000,0.0000000,0.1009910,0.0511798,0.0000000,0.0000000,0.0070736,0.0000000,0.0000000,0.0000000,0.0511798,0.0000000,0.0000000,0.0070736,0.0000000,0.0000000,0.0000000,0.0511798,0.0000000,0.0000000,0.0070736,0.0070736,0.0000000,0.0000000,0.0019678,0.0000000,0.0000000,0.0000000,0.0070736,0.0000000,0.0000000,0.0019678,0.0000000,0.0000000,0.0000000,0.0070736,0.0000000,0.0000000,0.0019678
64.1577180,1.1001000,,-0.9866964,-0.1625573,-0.0005407,0.0022853,0.0002441,-0.0048649,-0.0006280,,,,1.1375118,-7.1476393,-21.3477974,0.0000000,0.0000000,0.0000000,0.0220020,0.0514911,0.0000000,0.0000000,0.0071170,0.0000000,0.0000000,0.0000000,0.0514911,0.0000000,0.0000000,0.0071170,0.0000000,0.0000000,0.0000000,0.0514911,0.0000000,0.0000000,0.0071170,0.0071170,0.0000000,0.0000000,0.0019738,0.0000000,0.0000000,0.0000000,0.0071170,0.0000000,0.0000000,0.0019738,0.0000000,0.0000000,0.0000000,0.0071170,0.0000000,0.0000000,0.0019738
64.1709060,1.4499000,,-0.9866964,-0.1625572,-0.0005052,0.0022730,-0.0046082,-0.0068651,-0.0000699,,,,1.1375118,-7.1476393,-21.3477974,0.0000000,0.0000000,0.0000000,0.0289980,0.0519038,0.0000000,0.0000000,0.0071743,0.0000000,0.0000000,0.0000000,0.0519038,0.0000000,0.0000000,0.0071743,0.0000000,0.0000000,0.0000000,0.0519038,0.0000000,0.0000000,0.0071743,0.0071743,0.0000000,0.0000000,0.0019818,0.0000000,0.0000000,0.0000000,0.0071743,0.0000000,0.0000000,0.0019818,0.0000000,0.0000000,0.0000000,0.0071743,0.0000000,0.0000000,0.0019818
64.1908320,1.0000000,,-0.9866964,-0.1625572,-0.0005056,0.0022783,0.0019531,0.0043571,0.0053362,,,,1.1375118,-7.1476393,-21.3477974,0.0000000,0.0000000,0.0000000,0.0200000,0.0521908,0.0000000,0.0000000,0.0072140,0.0000000,0.0000000,0.0000000,0.0521908,0.0000000,0.0000000,0.0072140,0.0000000,0.0000000,0.0000000,0.0521908,0.0000000,0.0000000,0.0072140,0.0072140,0.0000000,0.0000000,0.0019873,0.0000000,0.0000000,0.0000000,0.0072140,0.0000000,0.0000000,0.0019873,0.0000000,0.0000000,0.0000000,0.0072140,0.0000000,0.0000000,0.0019873
64.2106430,1.0003999,,-0.9866964,-0.1625572,-0.0005191,0.0022799,0.0049667,0.0062984,0.0024239,,,,1.1375118,-7.1476393,-21.3477974,0.0000000,0.0000000,0.0000000,0.0200080,0.0524795,0.0000000,0.0000000,0.0072538,0.0000000,0.0000000,0.0000000,0.0524795,0.0000000,0.0000000,0.0072538,0.0000000,0.0000000,0.0000000,0.0524795,0.0000000,0.0000000,0.0072538,0.0072538,0.0000000,0.0000000,0.0019928,0.0000000,0.0000000,0.0000000,0.0072538,0.0000000,0.0000000,0.0019928,0.0000000,0.0000000,0.0000000,0.0072538,0.0000000,0.0000000,0.0019928
64.2318450,1.0496501,,-0.9866964,-0.1625572,-0.0005217,0.0022699,0.0030708,-0.0003145,0.0078038,,,,1.1375118,-7.1476393,-21.3477974,0.0000000,0.0000000,0.0000000,0.0209930,0.0527840,0.0000000,0.0000000,0.0072957,0.0000000,0.0000000,0.0000000,0.0527840,0.0000000,0.0000000,0.0072957,0.0000000,0.0000000,0.0000000,0.0527840,0.0000000,0.0000000,0.0072957,0.0072957,0.0000000,0.0000000,0.0019985,0.0000000,0.0000000,0.0000000,0.0072957,0.0000000,0.0000000,0.0019985,0.0000000,0.0000000,0.0000000,0.0072957,0.0000000,0.0000000,0.0019985
64.2475670,,1.0201000,-0.9866964,-0.1625572,-0.0005217,0.0022699,,,,0.0000000,0.0000000,0.0000000,1.1375118,-7.1476393,-21.3477974,0.0000000,0.0000000,0.0000000,0.1020100,0.0513408,0.0000000,0.0000000,0.0070962,0.0000000,0.0000000,0.0000000,0.0513408,0.0000000,0.0000000,0.0070962,0.0000000,0.0000000,0.0000000,0.0513408,0.0000000,0.0000000,0.0070962,0.0070962,0.0000000,0.0000000,0.0019710,0.0000000,0.0000000,0.0000000,0.0070962,0.0000000,0.0000000,0.0019710,0.0000000,0.0000000,0.0000000,0.0070962,0.0000000,0.0000000,0.0019710
64.2608280,1.1001501,,-0.9866964,-0.1625572,-0.0005022,0.0022824,-0.0017529,0.0000792,0.0075640,,,,1.1375118,-7.1476393,-21.3477974,0.0000000,0.0000000,0.0000000,0.0220030,0.0516531,0.0000000,0.0000000,0.0071396,0.0000000,0.0000000,0.0000000,0.0516531,0.0000000,0.0000000,0.0071396,0.0000000,0.0000000,0.0000000,0.0516531,0.0000000,0.0000000,0.0071396,0.0071396,0.0000000,0.0000000,0.0019770,0.0000000,0.0000000,0.0000000,0.0071396,0.0000000,0.0000000,0.0019770,0.0000000,0.0000000,0.0000000,0.0071396,0.0000000,0.0000000,0.0019770
64.2739420,1.0002000,,-0.9866964,-0.1625572,-0.0004936,0.0023011,-0.0009985,-0.0006775,0.0047586,,,,1.1375118,-7.1476393,-21.3477974,0.0000000,0.0000000,0.0000000,0.0200040,0.0519387,0.0000000,0.0000000,0.0071792,0.0000000,0.0000000,0.0000000,0.0519387,0.0000000,0.0000000,0.0071792,0.0000000,0.0000000,0.0000000,0.0519387,0.0000000,0.0000000,0.0071792,0.0071792,0.0000000,0.0000000,0.0019825,0.0000000,0.0000000,0.0000000,0.0071792,0.0000000,0.0000000,0.0019825,0.0000000,0.0000000,0.0000000,0.0071792,0.0000000,0.0000000,0.0019825
64.2939230,0.9996500,,-0.9866964,-0.1625572,-0.0004920,0.0022843,-0.0040317,0.0037735,0.0053090,,,,1.1375118,-7.1476393,-21.3477974,0.0000000,0.0000000,0.0000000,0.0199930,0.0522258,0.0000000,0.0000000,0.0072189,0.0000000,0.0000000,0.0000000,0.0522258,0.0000000,0.0000000,0.0072189,0.0000000,0.0000000,0.0000000,0.0522258,0.0000000,0.0000000,0.0072189,0.0072189,0.0000000,0.0000000,0.0019880,0.0000000,0.0000000,0.0000000,0.0072189,0.0000000,0.0000000,0.0019880,0.0000000,0.0000000,0.0000000,0.0072189,0.0000000,0.0000000,0.0019880
64.3139260,1.0002000,,-0.9866964,-0.1625572,-0.0004861,0.0022820,-0.0009019,0.0052818,0.0050959,,,,1.1375118,-7.1476393,-21.3477974,0.0000000,0.0000000,0.0000000,0.0200040,0.0525146,0.0000000,0.0000000,0.0072587,0.0000000,0.0000000,0.0000000,0.0525146,0.0000000,0.0000000,0.0072587,0.0000000,0.0000000,0.0000000,0.0525146,0.0000000,0.0000000,0.0072587,0.0072587,0.0000000,0.0000000,0.0019935,0.0000000,0.0000000,0.0000000,0.0072587,0.0000000,0.0000000,0.0019935,0.0000000,0.0000000,0.0000000,0.0072587,0.0000000,0.0000000,0.0019935
64.3336410,1.0002999,,-0.9866964,-0.1625572,-0.0004724,0.0022786,-0.0059060,0.0013973,-0.0028231,,,,1.1375118,-7.1476393,-21.3477974,0.0000000,0.0000000,0.0000000,0.0200060,0.0528051,0.0000000,0.0000000,0.0072987,0.0000000,0.0000000,0.0000000,0.0528051,0.0000000,0.0000000,0.0072987,0.0000000,0.0000000,0.0000000,0.0528051,0.0000000,0.0000000,0.0072987,0.0072987,0.0000000,0.0000000,0.0019990,0.0000000,0.0000000,0.0000000,0.0072987,0.0000000,0.0000000,0.0019990,0.0000000,0.0000000,0.0000000,0.0072987,0.0000000,0.0000000,0.0019990
64.3497260,,1.0000401,-0.9866964,-0.1625572,-0.0004724,0.0022786,,,,0.0000000,0.0000000,0.0000000,1.1375118,-7.1476393,-21.3477974,0.0000000,0.0000000,0.0000000,0.1000040,0.0513607,0.0000000,0.0000000,0.0070990,0.0000000,0.0000000,0.0000000,0.0513607,0.0000000,0.0000000,0.0070990,0.0000000,0.0000000,0.0000000,0.0513607,0.0000000,0.0000000,0.0070990,0.0070990,0.0000000,0.0000000,0.0019714,0.0000000,0.0000000,0.0000000,0.0070990,0.0000000,0.0000000,0.0019714,0.0000000,0.0000000,0.0000000,0.0070990,0.0000000,0.0000000,0.0019714
64.3632200,1.0995500,,-0.9866964,-0.1625572,-0.0004690,0.0022607,0.0047680,0.0045515,-0.0050737,,,,1.1375118,-7.1476393,-21.3477974,0.0000000,0.0000000,0.0000000,0.0219910,0.0516730,0.0000000,0.0000000,0.0071425,0.0000000,0.0000000,0.0000000,0.0516730,0.0000000,0.0000000,0.0071425,0.0000000,0.0000000,0.0000000,0.0516730,0.0000000,0.0000000,0.0071425,0.0071425,0.0000000,0.0000000,0.0019774,0.0000000,0.0000000,0.0000000,0.0071425,0.0000000,0.0000000,0.0019774,0.0000000,0.0000000,0.0000000,0.0071425,0.0000000,0.0000000,0.0019774
64.3768190,1.0498501,,-0.9866964,-0.1625572,-0.0004707,0.0022636,0.0076559,0.0022452,-0.0008279,,,,1.1375118,-7.1476393,-21.3477974,0.0000000,0.0000000,0.0000000,0.0209970,0.0519729,0.0000000,0.0000000,0.0071840,0.0000000,0.0000000,0.0000000,0.0519729,0.0000000,0.0000000,0.0071840,0.0000000,0.0000000,0.0000000,0.0519729,0.0000000,0.0000000,0.0071840,0.0071840,0.0000000,0.0000000,0.0019832,0.0000000,0.0000000,0.0000000,0.0071840,0.0000000,0.0000000,0.0019832,0.0000000,0.0000000,0.0000000,0.0071840,0.0000000,0.0000000,0.0019832
64.3968320,1.0000501,,-0.9866964,-0.1625572,-0.0004775,0.0022877,0.0010280,0.0033275,0.0020275,,,,1.1375118,-7.1476393,-21.3477974,0.0000000,0.0000000,0.0000000,0.0200010,0.0522603,0.0000000,0.0000000,0.0072238,0.0000000,0.0000000,0.0000000,0.0522603,0.0000000,0.0000000,0.0072238,0.0000000,0.0000000,0.0000000,0.0522603,0.0000000,0.0000000,0.0072238,0.0072238,0.0000000,0.0000000,0.0019887,0.0000000,0.0000000,0.0000000,0.0072238,0.0000000,0.0000000,0.0019887,0.0000000,0.0000000,0.0000000,0.0072238,0.0000000,0.0000000,0.0019887
64.4167590,1.0006500,,-0.9866964,-0.1625572,-0.0005043,0.0022932,0.0054807,0.0021368,0.0034551,,,,1.1375118,-7.1476393,-21.3477974,0.0000000,0.0000000,0.0000000,0.0200130,0.0525494,0.0000000,0.0000000,0.0072636,0.0000000,0.0000000,0.0000000,0.0525494,0.0000000,0.0000000,0.0072636,0.0000000,0.0000000,0.0000000,0.0525494,0.0000000,0.0000000,0.0072636,0.0072636,0.0000000,0.0000000,0.0019941,0.0000000,0.0000000,0.0000000,0.0072636,0.0000000,0.0000000,0.0019941,0.0000000,0.0000000,0.0000000,0.0072636,0.0000000,0.0000000,0.0019941
64.4376520,1.0495499,,-0.9866964,-0.1625573,-0.0005262,0.0022772,-0.0032945,0.0037005,0.0017276,,,,1.1375118,-7.1476393,-21.3477974,0.0000000,0.0000000,0.0000000,0.0209910,0.0528544,0.0000000,0.0000000,0.0073055,0.0000000,0.0000000,0.0000000,0.0528544,0.0000000,0.0000000,0.0073055,0.0000000,0.0000000,0.0000000,0.0528544,0.0000000,0.0000000,0.0073055,0.0073055,0.0000000,0.0000000,0.0019999,0.0000000,0.0000000,0.0000000,0.0073055,0.0000000,0.0000000,0.0019999,0.0000000,0.0000000,0.0000000,0.0073055,0.0000000,0.0000000,0.0019999
64.4535790,,0.9998600,-0.9866964,-0.1625573,-0.0005262,0.0022772,,,,0.0000000,0.0000000,0.0000000,1.1375118,-7.1476393,-21.3477974,0.0000000,0.0000000,0.0000000,0.0999860,0.0514073,0.0000000,0.0000000,0.0071055,0.0000000,0.0000000,0.0000000,0.0514073,0.0000000,0.0000000,0.0071055,0.0000000,0.0000000,0.0000000,0.0514073,0.0000000,0.0000000,0.0071055,0.0071055,0.0000000,0.0000000,0.0019723,0.0000000,0.0000000,0.0000000,0.0071055,0.0000000,0.0000000,0.0019723,0.0000000,0.0000000,0.0000000,0.0071055,0.0000000,0.0000000,0.0019723
64.4667170,1.1003000,,-0.9866963,-0.1625573,-0.0005515,0.0022898,0.0032737,0.0023233,-0.0020659,,,,1.1375118,-7.1476393,-21.3477974,0.0000000,0.0000000,0.0000000,0.0220060,0.0517201,0.0000000,0.0000000,0.0071490,0.0000000,0.0000000,0.0000000,0.0517201,0.0000000,0.0000000,0.0071490,0.0000000,0.0000000,0.0000000,0.0517201,0.0000000,0.0000000,0.0071490,0.0071490,0.0000000,0.0000000,0.0019783,0.0000000,0.0000000,0.0000000,0.0071490,0.0000000,0.0000000,0.0019783,0.0000000,0.0000000,0.0000000,0.0071490,0.0000000,0.0000000,0.0019783
64.4797850,0.9994500,,-0.9866962,-0.1625574,-0.0005743,0.0023071,0.0001873,-0.0042094,-0.0024978,,,,1.1375118,-7.1476393,-21.3477974,0.0000000,0.0000000,0.0000000,0.0199890,0.0520059,0.0000000,0.0000000,0.0071886,0.0000000,0.0000000,0.0000000,0.0520059,0.0000000,0.0000000,0.0071886,0.0000000,0.0000000,0.0000000,0.0520059,0.0000000,0.0000000,0.0071886,0.0071886,0.0000000,0.0000000,0.0019838,0.0000000,0.0000000,0.0000000,0.0071886,0.0000000,0.0000000,0.0019838,0.0000000,0.0000000,0.0000000,0.0071886,0.0000000,0.0000000,0.0019838
64.5009120,1.0501500,,-0.9866961,-0.1625574,-0.0005901,0.0023422,-0.0004023,-0.0054693,-0.0027137,,,,1.1375118,-7.1476393,-21.3477974,0.0000000,0.0000000,0.0000000,0.0210030,0.0523078,0.0000000,0.0000000,0.0072303,0.0000000,0.0000000,0.0000000,0.0523078,0.0000000,0.0000000,0.0072303,0.0000000,0.0000000,0.0000000,0.0523078,0.0000000,0.0000000,0.0072303,0.0072303,0.0000000,0.0000000,0.0019895,0.0000000,0.0000000,0.0000000,0.0072303,0.0000000,0.0000000,0.0019895,0.0000000,0.0000000,0.0000000,0.0072303,0.0000000,0.0000000,0.0019895
64.5207740,1.0006500,,-0.9866961,-0.1625574,-0.0006113,0.0023380,-0.0029096,-0.0007739,-0.0033100,,,,1.1375118,-7.1476393,-21.3477974,0.0000000,0.0000000,0.0000000,0.0200130,0.0525972,0.0000000,0.0000000,0.0072702,0.0000000,0.0000000,0.0000000,0.0525972,0.0000000,0.0000000,0.0072702,0.0000000,0.0000000,0.0000000,0.0525972,0.0000000,0.0000000,0.0072702,0.0072702,0.0000000,0.0000000,0.0019950,0.0000000,0.0000000,0.0000000,0.0072702,0.0000000,0.0000000,0.0019950,0.0000000,0.0000000,0.0000000,0.0072702,0.0000000,0.0000000,0.0019950
64.5418620,1.0493500,,-0.9866961,-0.1625575,-0.0006482,0.0023381,0.0053049,-0.0013635,-0.0033640,,,,1.1375118,-7.1476393,-21.3477974,0.0000000,0.0000000,0.0000000,0.0209870,0.0529024,0.0000000,0.0000000,0.0073121,0.0000000,0.0000000,0.0000000,0.0529024,0.0000000,0.0000000,0.0073121,0.0000000,0.0000000,0.0000000,0.0529024,0.0000000,0.0000000,0.0073121,0.0073121,0.0000000,0.0000000,0.0020008,0.0000000,0.0000000,0.0000000,0.0073121,0.0000000,0.0000000,0.0020008,0.0000000,0.0000000,0.0000000,0.0073121,0.0000000,0.0000000,0.0020008
64.5578270,,1.0200000,-0.9866961,-0.1625575,-0.0006482,0.0023381,,,,0.0000000,0.0000000,0.0000000,1.1375118,-7.1476393,-21.3477974,0.0000000,0.0000000,0.0000000,0.1020000,0.0514528,0.0000000,0.0000000,0.0071117,0.0000000,0.0000000,0.0000000,0.0514528,0.0000000,0.0000000,0.0071117,0.0000000,0.0000000,0.0000000,0.0514528,0.0000000,0.0000000,0.0071117,0.0071117,0.0000000,0.0000000,0.0019731,0.0000000,0.0000000,0.0000000,0.0071117,0.0000000,0.0000000,0.0019731,0.0000000,0.0000000,0.0000000,0.0071117,0.0000000,0.0000000,0.0019731
64.5715230,1.1002001,,-0.9866961,-0.1625575,-0.0006700,0.0023427,0.0042775,0.0024997,0.0034450,,,,1.1375118,-7.1476393,-21.3477974,0.0000000,0.0000000,0.0000000,0.0220040,0.0517658,0.0000000,0.0000000,0.0071552,0.0000000,0.0000000,0.0000000,0.0517658,0.0000000,0.0000000,0.0071552,0.0000000,0.0000000,0.0000000,0.0517658,0.0000000,0.0000000,0.0071552,0.0071552,0.0000000,0.0000000,0.0019791,0.0000000,0.0000000,0.0000000,0.0071552,0.0000000,0.0000000,0.0019791,0.0000000,0.0000000,0.0000000,0.0071552,0.0000000,0.0000000,0.0019791
64.5848900,1.0497501,,-0.9866961,-0.1625575,-0.0006648,0.0023446,0.0001322,-0.0014204,0.0053846,,,,1.1375118,-7.1476393,-21.3477974,0.0000000,0.0000000,0.0000000,0.0209950,0.0520662,0.0000000,0.0000000,0.0071968,0.0000000,0.0000000,0.0000000,0.0520662,0.0000000,0.0000000,0.0071968,0.0000000,0.0000000,0.0000000,0.0520662,0.0000000,0.0000000,0.0071968,0.0071968,0.0000000,0.0000000,0.0019849,0.0000000,0.0000000,0.0000000,0.0071968,0.0000000,0.0000000,0.0019849,0.0000000,0.0000000,0.0000000,0.0071968,0.0000000,0.0000000,0.0019849
64.6046760,1.0008000,,-0.9866961,-0.1625575,-0.0006504,0.0023324,-0.0053279,0.0029443,0.0012275,,,,1.1375118,-7.1476393,-21.3477974,0.0000000,0.0000000,0.0000000,0.0200160,0.0523543,0.0000000,0.0000000,0.0072366,0.0000000,0.0000000,0.0000000,0.0523543,0.0000000,0.0000000,0.0072366,0.0000000,0.0000000,0.0000000,0.0523543,0.0000000,0.0000000,0.0072366,0.0072366,0.0000000,0.0000000,0.0019904,0.0000000,0.0000000,0.0000000,0.0072366,0.0000000,0.0000000,0.0019904,0.0000000,0.0000000,0.0000000,0.0072366,0.0000000,0.0000000,0.0019904
64.6256400,1.0492001,,-0.9866962,-0.1625574,-0.0005942,0.0023238,-0.0067380,0.0024487,0.0035434,,,,1.1375118,-7.1476393,-21.3477974,0.0000000,0.0000000,0.0000000,0.0209840,0.0526580,0.0000000,0.0000000,0.0072784,0.0000000,0.0000000,0.0000000,0.0526580,0.0000000,0.0000000,0.0072784,0.0000000,0.0000000,0.0000000,0.0526580,0.0000000,0.0000000,0.0072784,0.0072784,0.0000000,0.0000000,0.0019962,0.0000000,0.0000000,0.0000000,0.0072784,0.0000000,0.0000000,0.0019962,0.0000000,0.0000000,0.0000000,0.0072784,0.0000000,0.0000000,0.0019962
64.6481120,,1.0100000,-0.9866962,-0.1625574,-0.0005847,0.0023202,,,,0.0000000,0.0000000,0.0000000,1.1375118,-7.1476393,-21.3477974,0.0000000,0.0000000,0.0000000,0.1010000,0.0512216,0.0000000,0.0000000,0.0070799,0.0000000,0.0000000,0.0000000,0.0512216,0.0000000,0.0000000,0.0070799,0.0000000,0.0000000,0.0000000,0.0512216,0.0000000,0.0000000,0.0070799,0.0070799,0.0000000,0.0000000,0.0019687,0.0000000,0.0000000,0.0000000,0.0070799,0.0000000,0.0000000,0.0019687,0.0000000,0.0000000,0.0000000,0.0070799,0.0000000,0.0000000,0.0019687
64.6627590,1.0999000,,-0.9866962,-0.1625574,-0.0005847,0.0023202,-0.0025984,-0.0009729,0.0010393,,,,1.1375118,-7.1476393,-21.3477974,0.0000000,0.0000000,0.0000000,0.0219980,0.0515331,0.0000000,0.0000000,0.0071233,0.0000000,0.0000000,0.0000000,0.0515331,0.0000000,0.0000000,0.0071233,0.0000000,0.0000000,0.0000000,0.0515331,0.0000000,0.0000000,0.0071233,0.0071233,0.0000000,0.0000000,0.0019748,0.0000000,0.0000000,0.0000000,0.0071233,0.0000000,0.0000000,0.0019748,0.0000000,0.0000000,0.0000000,0.0071233,0.0000000,0.0000000,0.0019748
64.6771740,1.4000500,,-0.9866962,-0.1625573,-0.0005496,0.0023056,-0.0007118,0.0051135,0.0012521,,,,1.1375118,-7.1476393,-21.3477974,0.0000000,0.0000000,0.0000000,0.0280010,0.0519320,0.0000000,0.0000000,0.0071786,0.0000000,0.0000000,0.0000000,0.0519320,0.0000000,0.0000000,0.0071786,0.0000000,0.0000000,0.0000000,0.0519320,0.0000000,0.0000000,0.0071786,0.0071786,0.0000000,0.0000000,0.0019824,0.0000000,0.0000000,0.0000000,0.0071786,0.0000000,0.0000000,0.0019824,0.0000000,0.0000000,0.0000000,0.0071786,0.0000000,0.0000000,0.0019824
64.6959300,1.0001000,,-0.9866962,-0.1625573,-0.0005415,0.0023254,0.0006970,-0.0025397,0.0013585,,,,1.1375118,-7.1476393,-21.3477974,0.0000000,0.0000000,0.0000000,0.0200020,0.0522192,0.0000000,0.0000000,0.0072183,0.0000000,0.0000000,0.0000000,0.0522192,0.0000000,0.0000000,0.0072183,0.0000000,0.0000000,0.0000000,0.0522192,0.0000000,0.0000000,0.0072183,0.0072183,0.0000000,0.0000000,0.0019879,0.0000000,0.0000000,0.0000000,0.0072183,0.0000000,0.0000000,0.0019879,0.0000000,0.0000000,0.0000000,0.0072183,0.0000000,0.0000000,0.0019879
64.7161230,0.9999000,,-0.9866962,-0.1625573,-0.0005273,0.0023337,-0.0024896,-0.0036807,-0.0000532,,,,1.1375118,-7.1476393,-21.3477974,0.0000000,0.0000000,0.0000000,0.0199980,0.0525079,0.0000000,0.0000000,0.0072581,0.0000000,0.0000000,0.0000000,0.0525079,0.0000000,0.0000000,0.0072581,0.0000000,0.0000000,0.0000000,0.0525079,0.0000000,0.0000000,0.0072581,0.0072581,0.0000000,0.0000000,0.0019934,0.0000000,0.0000000,0.0000000,0.0072581,0.0000000,0.0000000,0.0019934,0.0000000,0.0000000,0.0000000,0.0072581,0.0000000,0.0000000,0.0019934
64.7372310,0.9999500,,-0.9866962,-0.1625572,-0.0005020,0.0023375,-0.0013593,-0.0022905,0.0033914,,,,1.1375118,-7.1476393,-21.3477974,0.0000000,0.0000000,0.0000000,0.0199990,0.0527982,0.0000000,0.0000000,0.0072981,0.0000000,0.0000000,0.0000000,0.0527982,0.0000000,0.0000000,0.0072981,0.0000000,0.0000000,0.0000000,0.0527982,0.0000000,0.0000000,0.0072981,0.0072981,0.0000000,0.0000000,0.0019989,0.0000000,0.0000000,0.0000000,0.0072981,0.0000000,0.0000000,0.0019989,0.0000000,0.0000000,0.0000000,0.0072981,0.0000000,0.0000000,0.0019989
64.7526810,,1.0000199,-0.9866962,-0.1625572,-0.0005020,0.0023375,,,,0.0000000,0.0000000,0.0000000,1.1375118,-7.1476393,-21.3477974,0.0000000,0.0000000,0.0000000,0.1000020,0.0513542,0.0000000,0.0000000,0.0070985,0.0000000,0.0000000,0.0000000,0.0513542,0.0000000,0.0000000,0.0070985,0.0000000,0.0000000,0.0000000,0.0513542,0.0000000,0.0000000,0.0070985,0.0070985,0.0000000,0.0000000,0.0019713,0.0000000,0.0000000,0.0000000,0.0070985,0.0000000,0.0000000,0.0019713,0.0000000,0.0000000,0.0000000,0.0070985,0.0000000,0.0000000,0.0019713
64.7664120,1.0002999,,-0.9866962,-0.1625572,-0.0004852,0.0023253,-0.0019995,0.0044852,0.0004750,,,,1.1375118,-7.1476393,-21.3477974,0.0000000,0.0000000,0.0000000,0.0200060,0.0516382,0.0000000,0.0000000,0.0071380,0.0000000,0.0000000,0.0000000,0.0516382,0.0000000,0.0000000,0.0071380,0.0000000,0.0000000,0.0000000,0.0516382,0.0000000,0.0000000,0.0071380,0.0071380,0.0000000,0.0000000,0.0019768,0.0000000,0.0000000,0.0000000,0.0071380,0.0000000,0.0000000,0.0019768,0.0000000,0.0000000,0.0000000,0.0071380,0.0000000,0.0000000,0.0019768
64.7798250,1.1997001,,-0.9866962,-0.1625572,-0.0004991,0.0023228,0.0047147,-0.0026249,-0.0004949,,,,1.1375118,-7.1476393,-21.3477974,0.0000000,0.0000000,0.0000000,0.0239940,0.0519808,0.0000000,0.0000000,0.0071855,0.0000000,0.0000000,0.0000000,0.0519808,0.0000000,0.0000000,0.0071855,0.0000000,0.0000000,0.0000000,0.0519808,0.0000000,0.0000000,0.0071855,0.0071855,0.0000000,0.0000000,0.0019834,0.0000000,0.0000000,0.0000000,0.0071855,0.0000000,0.0000000,0.0019834,0.0000000,0.0000000,0.0000000,0.0071855,0.0000000,0.0000000,0.0019834
64.8011710,1.0004500,,-0.9866962,-0.1625572,-0.0004852,0.0023229,0.0000533,-0.0078814,-0.0026889,,,,1.1375118,-7.1476393,-21.3477974,0.0000000,0.0000000,0.0000000,0.0200090,0.0522683,0.0000000,0.0000000,0.0072252,0.0000000,0.0000000,0.0000000,0.0522683,0.0000000,0.0000000,0.0072252,0.0000000,0.0000000,0.0000000,0.0522683,0.0000000,0.0000000,0.0072252,0.0072252,0.0000000,0.0000000,0.0019889,0.0000000,0.0000000,0.0000000,0.0072252,0.0000000,0.0000000,0.0019889,0.0000000,0.0000000,0.0000000,0.0072252,0.0000000,0.0000000,0.0019889
64.8198560,1.0000000,,-0.9866963,-0.1625572,-0.0004776,0.0023043,-0.0032464,-0.0032235,-0.0052507,,,,1.1375118,-7.1476393,-21.3477974,0.0000000,0.0000000,0.0000000,0.0200000,0.0525573,0.0000000,0.0000000,0.0072650,0.0000000,0.0000000,0.0000000,0.0525573,0.0000000,0.0000000,0.0072650,0.0000000,0.0000000,0.0000000,0.0525573,0.0000000,0.0000000,0.0072650,0.0072650,0.0000000,0.0000000,0.0019944,0.0000000,0.0000000,0.0000000,0.0072650,0.0000000,0.0000000,0.0019944,0.0000000,0.0000000,0.0000000,0.0072650,0.0000000,0.0000000,0.0019944
64.8400210,0.9999500,,-0.9866963,-0.1625572,-0.0004837,0.0023103,0.0028934,-0.0006199,-0.0062875,,,,1.1375118,-7.1476393,-21.3477974,0.0000000,0.0000000,0.0000000,0.0199990,0.0528479,0.0000000,0.0000000,0.0073050,0.0000000,0.0000000,0.0000000,0.0528479,0.0000000,0.0000000,0.0073050,0.0000000,0.0000000,0.0000000,0.0528479,0.0000000,0.0000000,0.0073050,0.0073050,0.0000000,0.0000000,0.0019999,0.0000000,0.0000000,0.0000000,0.0073050,0.0000000,0.0000000,0.0019999,0.0000000,0.0000000,0.0000000,0.0073050,0.0000000,0.0000000,0.0019999
64.8558720,,1.0199900,-0.9866963,-0.1625572,-0.0004837,0.0023103,,,,0.0000000,0.0000000,0.0000000,1.1375118,-7.1476393,-21.3477974,0.0000000,0.0000000,0.0000000,0.1019990,0.0514013,0.0000000,0.0000000,0.0071050,0.0000000,0.0000000,0.0000000,0.0514013,0.0000000,0.0000000,0.0071050,0.0000000,0.0000000,0.0000000,0.0514013,0.0000000,0.0000000,0.0071050,0.0071050,0.0000000,0.0000000,0.0019722,0.0000000,0.0000000,0.0000000,0.0071050,0.0000000,0.0000000,0.0019722,0.0000000,0.0000000,0.0000000,0.0071050,0.0000000,0.0000000,0.0019722
64.8697030,0.9996500,,-0.9866962,-0.1625572,-0.0004807,0.0023188,0.0027971,-0.0034609,-0.0014347,,,,1.1375118,-7.1476393,-21.3477974,0.0000000,0.0000000,0.0000000,0.0199930,0.0516854,0.0000000,0.0000000,0.0071445,0.0000000,0.0000000,0.0000000,0.0516854,0.0000000,0.0000000,0.0071445,0.0000000,0.0000000,0.0000000,0.0516854,0.0000000,0.0000000,0.0071445,0.0071445,0.0000000,0.0000000,0.0019777,0.0000000,0.0000000,0.0000000,0.0071445,0.0000000,0.0000000,0.0019777,0.0000000,0.0000000,0.0000000,0.0071445,0.0000000,0.0000000,0.0019777
64.8827640,1.1499500,,-0.9866962,-0.1625571,-0.0004484,0.0023546,-0.0025687,-0.0067582,0.0007475,,,,1.1375118,-7.1476393,-21.3477974,0.0000000,0.0000000,0.0000000,0.0229990,0.0520140,0.0000000,0.0000000,0.0071900,0.0000000,0.0000000,0.0000000,0.0520140,0.0000000,0.0000000,0.0071900,0.0000000,0.0000000,0.0000000,0.0520140,0.0000000,0.0000000,0.0071900,0.0071900,0.0000000,0.0000000,0.0019840,0.0000000,0.0000000,0.0000000,0.0071900,0.0000000,0.0000000,0.0019840,0.0000000,0.0000000,0.0000000,0.0071900,0.0000000,0.0000000,0.0019840
64.9039870,1.0502001,,-0.9866962,-0.1625571,-0.0004259,0.0023432,0.0016072,-0.0016320,0.0013503,,,,1.1375118,-7.1476393,-21.3477974,0.0000000,0.0000000,0.0000000,0.0210040,0.0523160,0.0000000,0.0000000,0.0072318,0.0000000,0.0000000,0.0000000,0.0523160,0.0000000,0.0000000,0.0072318,0.0000000,0.0000000,0.0000000,0.0523160,0.0000000,0.0000000,0.0072318,0.0072318,0.0000000,0.0000000,0.0019898,0.0000000,0.0000000,0.0000000,0.0072318,0.0000000,0.0000000,0.0019898,0.0000000,0.0000000,0.0000000,0.0072318,0.0000000,0.0000000,0.0019898
64.9239640,1.0001501,,-0.9866962,-0.1625571,-0.0004377,0.0023342,0.0038935,0.0021442,0.0018959,,,,1.1375118,-7.1476393,-21.3477974,0.0000000,0.0000000,0.0000000,0.0200030,0.0526053,0.0000000,0.0000000,0.0072716,0.0000000,0.0000000,0.0000000,0.0526053,0.0000000,0.0000000,0.0072716,0.0000000,0.0000000,0.0000000,0.0526053,0.0000000,0.0000000,0.0072716,0.0072716,0.0000000,0.0000000,0.0019953,0.0000000,0.0000000,0.0000000,0.0072716,0.0000000,0.0000000,0.0019953,0.0000000,0.0000000,0.0000000,0.0072716,0.0000000,0.0000000,0.0019953
64.9451100,1.0497501,,-0.9866962,-0.1625571,-0.0004248,0.0023392,0.0060437,0.0021021,0.0038776,,,,1.1375118,-7.1476393,-21.3477974,0.0000000,0.0000000,0.0000000,0.0209950,0.0529107,0.0000000,0.0000000,0.0073136,0.0000000,0.0000000,0.0000000,0.0529107,0.0000000,0.0000000,0.0073136,0.0000000,0.0000000,0.0000000,0.0529107,0.0000000,0.0000000,0.0073136,0.0073136,0.0000000,0.0000000,0.0020010,0.0000000,0.0000000,0.0000000,0.0073136,0.0000000,0.0000000,0.0020010,0.0000000,0.0000000,0.0000000,0.0073136,0.0000000,0.0000000,0.0020010
64.9610480,,1.0000401,-0.9866962,-0.1625571,-0.0004248,0.0023585,,,,0.0000000,0.0000000,0.0000000,1.1375118,-7.1476393,-21.3477974,0.0000000,0.0000000,0.0000000,0.1000040,0.0514606,0.0000000,0.0000000,0.0071131,0.0000000,0.0000000,0.0000000,0.0514606,0.0000000,0.0000000,0.0071131,0.0000000,0.0000000,0.0000000,0.0514606,0.0000000,0.0000000,0.0071131,0.0071131,0.0000000,0.0000000,0.0019733,0.0000000,0.0000000,0.0000000,0.0071131,0.0000000,0.0000000,0.0019733,0.0000000,0.0000000,0.0000000,0.0071131,0.0000000,0.0000000,0.0019733
64.9748740,1.0003500,,-0.9866962,-0.1625570,-0.0004236,0.0023585,0.0090567,-0.0015506,0.0012064,,,,1.1375118,-7.1476393,-21.3477974,0.0000000,0.0000000,0.0000000,0.0200070,0.0517453,0.0000000,0.0000000,0.0071527,0.0000000,0.0000000,0.0000000,0.0517453,0.0000000,0.0000000,0.0071527,0.0000000,0.0000000,0.0000000,0.0517453,0.0000000,0.0000000,0.0071527,0.0071527,0.0000000,0.0000000,0.0019788,0.0000000,0.0000000,0.0000000,0.0071527,0.0000000,0.0000000,0.0019788,0.0000000,0.0000000,0.0000000,0.0071527,0.0000000,0.0000000,0.0019788
64.9877610,1.1495500,,-0.9866962,-0.1625569,-0.0003898,0.0023704,-0.0010869,-0.0026292,0.0015798,,,,1.1375118,-7.1476393,-21.3477974,0.0000000,0.0000000,0.0000000,0.0229910,0.0520742,0.0000000,0.0000000,0.0071982,0.0000000,0.0000000,0.0000000,0.0520742,0.0000000,0.0000000,0.0071982,0.0000000,0.0000000,0.0000000,0.0520742,0.0000000,0.0000000,0.0071982,0.0071982,0.0000000,0.0000000,0.0019851,0.0000000,0.0000000,0.0000000,0.0071982,0.0000000,0.0000000,0.0019851,0.0000000,0.0000000,0.0000000,0.0071982,0.0000000,0.0000000,0.0019851
65.0089420,1.0502001,,-0.9866962,-0.1625570,-0.0003933,0.0023738,0.0057661,-0.0002541,0.0081141,,,,1.1375118,-7.1476393,-21.3477974,0.0000000,0.0000000,0.0000000,0.0210040,0.0523765,0.0000000,0.0000000,0.0072400,0.0000000,0.0000000,0.0000000,0.0523765,0.0000000,0.0000000,0.0072400,0.0000000,0.0000000,0.0000000,0.0523765,0.0000000,0.0000000,0.0072400,0.0072400,0.0000000,0.0000000,0.0019909,0.0000000,0.0000000,0.0000000,0.0072400,0.0000000,0.0000000,0.0019909,0.0000000,0.0000000,0.0000000,0.0072400,0.0000000,0.0000000,0.0019909
65.0302270,0.9999500,,-0.9866962,-0.1625569,-0.0003802,0.0023882,0.0053092,-0.0012333,0.0023481,,,,1.1375118,-7.1476393,-21.3477974,0.0000000,0.0000000,0.0000000,0.0199990,0.0526661,0.0000000,0.0000000,0.0072799,0.0000000,0.0000000,0.0000000,0.0526661,0.0000000,0.0000000,0.0072799,0.0000000,0.0000000,0.0000000,0.0526661,0.0000000,0.0000000,0.0072799,0.0072799,0.0000000,0.0000000,0.0019964,0.0000000,0.0000000,0.0000000,0.0072799,0.0000000,0.0000000,0.0019964,0.0000000,0.0000000,0.0000000,0.0072799,0.0000000,0.0000000,0.0019964
65.0525440,,1.0099699,-0.9866962,-0.1625569,-0.0003502,0.0023837,,,,0.0000000,0.0000000,0.0000000,1.1375118,-7.1476393,-21.3477974,0.0000000,0.0000000,0.0000000,0.1009970,0.0512293,0.0000000,0.0000000,0.0070812,0.0000000,0.0000000,0.0000000,0.0512293,0.0000000,0.0000000,0.0070812,0.0000000,0.0000000,0.0000000,0.0512293,0.0000000,0.0000000,0.0070812,0.0070812,0.0000000,0.0000000,0.0019689,0.0000000,0.0000000,0.0000000,0.0070812,0.0000000,0.0000000,0.0019689,0.0000000,0.0000000,0.0000000,0.0070812,0.0000000,0.0000000,0.0019689
65.0655720,1.0998499,,-0.9866962,-0.1625569,-0.0003502,0.0023837,-0.0053715,0.0041212,0.0026389,,,,1.1375118,-7.1476393,-21.3477974,0.0000000,0.0000000,0.0000000,0.0219970,0.0515408,0.0000000,0.0000000,0.0071246,0.0000000,0.0000000,0.0000000,0.0515408,0.0000000,0.0000000,0.0071246,0.0000000,0.0000000,0.0000000,0.0515408,0.0000000,0.0000000,0.0071246,0.0071246,0.0000000,0.0000000,0.0019750,0.0000000,0.0000000,0.0000000,0.0071246,0.0000000,0.0000000,0.0019750,0.0000000,0.0000000,0.0000000,0.0071246,0.0000000,0.0000000,0.0019750
65.0801870,1.4002501,,-0.9866962,-0.1625568,-0.0003362,0.0023937,-0.0087588,0.0080497,0.0005870,,,,1.1375118,-7.1476393,-21.3477974,0.0000000,0.0000000,0.0000000,0.0280050,0.0519398,0.0000000,0.0000000,0.0071800,0.0000000,0.0000000,0.0000000,0.0519398,0.0000000,0.0000000,0.0071800,0.0000000,0.0000000,0.0000000,0.0519398,0.0000000,0.0000000,0.0071800,0.0071800,0.0000000,0.0000000,0.0019826,0.0000000,0.0000000,0.0000000,0.0071800,0.0000000,0.0000000,0.0019826,0.0000000,0.0000000,0.0000000,0.0071800,0.0000000,0.0000000,0.0019826
65.0990650,1.0002000,,-0.9866962,-0.1625569,-0.0003460,0.0023847,-0.0073091,0.0058254,-0.0023920,,,,1.1375118,-7.1476393,-21.3477974,0.0000000,0.0000000,0.0000000,0.0200040,0.0522271,0.0000000,0.0000000,0.0072197,0.0000000,0.0000000,0.0000000,0.0522271,0.0000000,0.0000000,0.0072197,0.0000000,0.0000000,0.0000000,0.0522271,0.0000000,0.0000000,0.0072197,0.0072197,0.0000000,0.0000000,0.0019881,0.0000000,0.0000000,0.0000000,0.0072197,0.0000000,0.0000000,0.0019881,0.0000000,0.0000000,0.0000000,0.0072197,0.0000000,0.0000000,0.0019881
65.1221720,1.0996000,,-0.9866964,-0.1625569,-0.0003696,0.0023406,-0.0083161,0.0034086,-0.0004636,,,,1.1375118,-7.1476393,-21.3477974,0.0000000,0.0000000,0.0000000,0.0219920,0.0525447,0.0000000,0.0000000,0.0072635,0.0000000,0.0000000,0.0000000,0.0525447,0.0000000,0.0000000,0.0072635,0.0000000,0.0000000,0.0000000,0.0525447,0.0000000,0.0000000,0.0072635,0.0072635,0.0000000,0.0000000,0.0019942,0.0000000,0.0000000,0.0000000,0.0072635,0.0000000,0.0000000,0.0019942,0.0000000,0.0000000,0.0000000,0.0072635,0.0000000,0.0000000,0.0019942
65.1410300,1.0003500,,-0.9866964,-0.1625569,-0.0003656,0.0023283,-0.0078202,0.0041762,0.0051393,,,,1.1375118,-7.1476393,-21.3477974,0.0000000,0.0000000,0.0000000,0.0200070,0.0528353,0.0000000,0.0000000,0.0073035,0.0000000,0.0000000,0.0000000,0.0528353,0.0000000,0.0000000,0.0073035,0.0000000,0.0000000,0.0000000,0.0528353,0.0000000,0.0000000,0.0073035,0.0073035,0.0000000,0.0000000,0.0019997,0.0000000,0.0000000,0.0000000,0.0073035,0.0000000,0.0000000,0.0019997,0.0000000,0.0000000,0.0000000,0.0073035,0.0000000,0.0000000,0.0019997
65.1557250,,1.0000000,-0.9866964,-0.1625569,-0.0003656,0.0023283,,,,0.0000000,0.0000000,0.0000000,1.1375118,-7.1476393,-21.3477974,0.0000000,0.0000000,0.0000000,0.1000000,0.0513893,0.0000000,0.0000000,0.0071036,0.0000000,0.0000000,0.0000000,0.0513893,0.0000000,0.0000000,0.0071036,0.0000000,0.0000000,0.0000000,0.0513893,0.0000000,0.0000000,0.0071036,0.0071036,0.0000000,0.0000000,0.0019720,0.0000000,0.0000000,0.0000000,0.0071036,0.0000000,0.0000000,0.0019720,0.0000000,0.0000000,0.0000000,0.0071036,0.0000000,0.0000000,0.0019720
65.1698780,0.9997000,,-0.9866964,-0.1625569,-0.0003429,0.0023269,-0.0050850,-0.0047021,0.0037904,,,,1.1375118,-7.1476393,-21.3477974,0.0000000,0.0000000,0.0000000,0.0199940,0.0516734,0.0000000,0.0000000,0.0071431,0.0000000,0.0000000,0.0000000,0.0516734,0.0000000,0.0000000,0.0071431,0.0000000,0.0000000,0.0000000,0.0516734,0.0000000,0.0000000,0.0071431,0.0071431,0.0000000,0.0000000,0.0019775,0.0000000,0.0000000,0.0000000,0.0071431,0.0000000,0.0000000,0.0019775,0.0000000,0.0000000,0.0000000,0.0071431,0.0000000,0.0000000,0.0019775
65.1829840,1.1003000,,-0.9866964,-0.1625569,-0.0003274,0.0023239,-0.0005360,-0.0003521,0.0031159,,,,1.1375118,-7.1476393,-21.3477974,0.0000000,0.0000000,0.0000000,0.0220060,0.0519878,0.0000000,0.0000000,0.0071866,0.0000000,0.0000000,0.0000000,0.0519878,0.0000000,0.0000000,0.0071866,0.0000000,0.0000000,0.0000000,0.0519878,0.0000000,0.0000000,0.0071866,0.0071866,0.0000000,0.0000000,0.0019836,0.0000000,0.0000000,0.0000000,0.0071866,0.0000000,0.0000000,0.0019836,0.0000000,0.0000000,0.0000000,0.0071866,0.0000000,0.0000000,0.0019836
65.2028520,1.0002501,,-0.9866964,-0.1625569,-0.0003326,0.0023153,0.0007391,-0.0003897,0.0057083,,,,1.1375118,-7.1476393,-21.3477974,0.0000000,0.0000000,0.0000000,0.0200050,0.0522753,0.0000000,0.0000000,0.0072264,0.0000000,0.0000000,0.0000000,0.0522753,0.0000000,0.0000000,0.0072264,0.0000000,0.0000000,0.0000000,0.0522753,0.0000000,0.0000000,0.0072264,0.0072264,0.0000000,0.0000000,0.0019890,0.0000000,0.0000000,0.0000000,0.0072264,0.0000000,0.0000000,0.0019890,0.0000000,0.0000000,0.0000000,0.0072264,0.0000000,0.0000000,0.0019890
65.2237330,1.0495000,,-0.9866964,-0.1625569,-0.0003418,0.0023382,0.0133166,0.0006139,0.0074928,,,,1.1375118,-7.1476393,-21.3477974,0.0000000,0.0000000,0.0000000,0.0209900,0.0525787,0.0000000,0.0000000,0.0072682,0.0000000,0.0000000,0.0000000,0.0525787,0.0000000,0.0000000,0.0072682,0.0000000,0.0000000,0.0000000,0.0525787,0.0000000,0.0000000,0.0072682,0.0072682,0.0000000,0.0000000,0.0019948,0.0000000,0.0000000,0.0000000,0.0072682,0.0000000,0.0000000,0.0019948,0.0000000,0.0000000,0.0000000,0.0072682,0.0000000,0.0000000,0.0019948
65.2462220,1.0502501,,-0.9866963,-0.1625569,-0.0003446,0.0023527,0.0103281,-0.0066892,-0.0013805,,,,1.1375118,-7.1476393,-21.3477974,0.0000000,0.0000000,0.0000000,0.0210050,0.0528840,0.0000000,0.0000000,0.0073101,0.0000000,0.0000000,0.0000000,0.0528840,0.0000000,0.0000000,0.0073101,0.0000000,0.0000000,0.0000000,0.0528840,0.0000000,0.0000000,0.0073101,0.0073101,0.0000000,0.0000000,0.0020006,0.0000000,0.0000000,0.0000000,0.0073101,0.0000000,0.0000000,0.0020006,0.0000000,0.0000000,0.0000000,0.0073101,0.0000000,0.0000000,0.0020006
65.2608120,,1.0000401,-0.9866963,-0.1625569,-0.0003446,0.0023464,,,,0.0000000,0.0000000,0.0000000,1.1375118,-7.1476393,-21.3477974,0.0000000,0.0000000,0.0000000,0.1000040,0.0514354,0.0000000,0.0000000,0.0071099,0.0000000,0.0000000,0.0000000,0.0514354,0.0000000,0.0000000,0.0071099,0.0000000,0.0000000,0.0000000,0.0514354,0.0000000,0.0000000,0.0071099,0.0071099,0.0000000,0.0000000,0.0019729,0.0000000,0.0000000,0.0000000,0.0071099,0.0000000,0.0000000,0.0019729,0.0000000,0.0000000,0.0000000,0.0071099,0.0000000,0.0000000,0.0019729
65.2746720,1.0000000,,-0.9866963,-0.1625569,-0.0003556,0.0023464,0.0063771,-0.0074416,-0.0045965,,,,1.1375118,-7.1476393,-21.3477974,0.0000000,0.0000000,0.0000000,0.0200000,0.0517198,0.0000000,0.0000000,0.0071494,0.0000000,0.0000000,0.0000000,0.0517198,0.0000000,0.0000000,0.0071494,0.0000000,0.0000000,0.0000000,0.0517198,0.0000000,0.0000000,0.0071494,0.0071494,0.0000000,0.0000000,0.0019784,0.0000000,0.0000000,0.0000000,0.0071494,0.0000000,0.0000000,0.0019784,0.0000000,0.0000000,0.0000000,0.0071494,0.0000000,0.0000000,0.0019784
65.2878160,1.1496000,,-0.9866964,-0.1625570,-0.0003586,0.0023127,0.0012431,0.0065331,-0.0030307,,,,1.1375118,-7.1476393,-21.3477974,0.0000000,0.0000000,0.0000000,0.0229920,0.0520485,0.0000000,0.0000000,0.0071950,0.0000000,0.0000000,0.0000000,0.0520485,0.0000000,0.0000000,0.0071950,0.0000000,0.0000000,0.0000000,0.0520485,0.0000000,0.0000000,0.0071950,0.0071950,0.0000000,0.0000000,0.0019847,0.0000000,0.0000000,0.0000000,0.0071950,0.0000000,0.0000000,0.0019847,0.0000000,0.0000000,0.0000000,0.0071950,0.0000000,0.0000000,0.0019847
65.3087330,1.0501001,,-0.9866964,-0.1625570,-0.0003538,0.0022902,0.0004003,0.0044720,-0.0024919,,,,1.1375118,-7.1476393,-21.3477974,0.0000000,0.0000000,0.0000000,0.0210020,0.0523508,0.0000000,0.0000000,0.0072367,0.0000000,0.0000000,0.0000000,0.0523508,0.0000000,0.0000000,0.0072367,0.0000000,0.0000000,0.0000000,0.0523508,0.0000000,0.0000000,0.0072367,0.0072367,0.0000000,0.0000000,0.0019904,0.0000000,0.0000000,0.0000000,0.0072367,0.0000000,0.0000000,0.0019904,0.0000000,0.0000000,0.0000000,0.0072367,0.0000000,0.0000000,0.0019904
65.3298280,1.0506001,,-0.9866965,-0.1625570,-0.0003504,0.0022748,0.0007113,0.0012365,-0.0012460,,,,1.1375118,-7.1476393,-21.3477974,0.0000000,0.0000000,0.0000000,0.0210120,0.0526549,0.0000000,0.0000000,0.0072786,0.0000000,0.0000000,0.0000000,0.0526549,0.0000000,0.0000000,0.0072786,0.0000000,0.0000000,0.0000000,0.0526549,0.0000000,0.0000000,0.0072786,0.0072786,0.0000000,0.0000000,0.0019962,0.0000000,0.0000000,0.0000000,0.0072786,0.0000000,0.0000000,0.0019962,0.0000000,0.0000000,0.0000000,0.0072786,0.0000000,0.0000000,0.0019962
65.3501600,0.9994000,,-0.9866965,-0.1625570,-0.0003633,0.0022615,-0.0003768,0.0035098,-0.0030644,,,,1.1375118,-7.1476393,-21.3477974,0.0000000,0.0000000,0.0000000,0.0199880,0.0529458,0.0000000,0.0000000,0.0073185,0.0000000,0.0000000,0.0000000,0.0529458,0.0000000,0.0000000,0.0073185,0.0000000,0.0000000,0.0000000,0.0529458,0.0000000,0.0000000,0.0073185,0.0073185,0.0000000,0.0000000,0.0020017,0.0000000,0.0000000,0.0000000,0.0073185,0.0000000,0.0000000,0.0020017,0.0000000,0.0000000,0.0000000,0.0073185,0.0000000,0.0000000,0.0020017
65.3665170,,1.0200900,-0.9866965,-0.1625570,-0.0003633,0.0022576,,,,0.0000000,0.0000000,0.0000000,1.1375118,-7.1476393,-21.3477974,0.0000000,0.0000000,0.0000000,0.1020090,0.0514939,0.0000000,0.0000000,0.0071178,0.0000000,0.0000000,0.0000000,0.0514939,0.0000000,0.0000000,0.0071178,0.0000000,0.0000000,0.0000000,0.0514939,0.0000000,0.0000000,0.0071178,0.0071178,0.0000000,0.0000000,0.0019740,0.0000000,0.0000000,0.0000000,0.0071178,0.0000000,0.0000000,0.0019740,0.0000000,0.0000000,0.0000000,0.0071178,0.0000000,0.0000000,0.0019740
65.3805090,1.0001501,,-0.9866965,-0.1625570,-0.0003598,0.0022576,-0.0087180,0.0002595,0.0011534,,,,1.1375118,-7.1476393,-21.3477974,0.0000000,0.0000000,0.0000000,0.0200030,0.0517786,0.0000000,0.0000000,0.0071574,0.0000000,0.0000000,0.0000000,0.0517786,0.0000000,0.0000000,0.0071574,0.0000000,0.0000000,0.0000000,0.0517786,0.0000000,0.0000000,0.0071574,0.0071574,0.0000000,0.0000000,0.0019794,0.0000000,0.0000000,0.0000000,0.0071574,0.0000000,0.0000000,0.0019794,0.0000000,0.0000000,0.0000000,0.0071574,0.0000000,0.0000000,0.0019794
65.3939180,1.1998000,,-0.9866965,-0.1625571,-0.0003786,0.0022502,-0.0080440,-0.0006484,0.0027739,,,,1.1375118,-7.1476393,-21.3477974,0.0000000,0.0000000,0.0000000,0.0239960,0.0521221,0.0000000,0.0000000,0.0072049,0.0000000,0.0000000,0.0000000,0.0521221,0.0000000,0.0000000,0.0072049,0.0000000,0.0000000,0.0000000,0.0521221,0.0000000,0.0000000,0.0072049,0.0072049,0.0000000,0.0000000,0.0019860,0.0000000,0.0000000,0.0000000,0.0072049,0.0000000,0.0000000,0.0019860,0.0000000,0.0000000,0.0000000,0.0072049,0.0000000,0.0000000,0.0019860
65.4137080,1.0004500,,-0.9866965,-0.1625571,-0.0004010,0.0022440,-0.0013822,-0.0025749,0.0023635,,,,1.1375118,-7.1476393,-21.3477974,0.0000000,0.0000000,0.0000000,0.0200090,0.0524105,0.0000000,0.0000000,0.0072447,0.0000000,0.0000000,0.0000000,0.0524105,0.0000000,0.0000000,0.0072447,0.0000000,0.0000000,0.0000000,0.0524105,0.0000000,0.0000000,0.0072447,0.0072447,0.0000000,0.0000000,0.0019915,0.0000000,0.0000000,0.0000000,0.0072447,0.0000000,0.0000000,0.0019915,0.0000000,0.0000000,0.0000000,0.0072447,0.0000000,0.0000000,0.0019915
65.4348040,1.0496501,,-0.9866965,-0.1625572,-0.0004189,0.0022195,-0.0000121,-0.0038280,0.0072853,,,,1.1375118,-7.1476393,-21.3477974,0.0000000,0.0000000,0.0000000,0.0209930,0.0527146,0.0000000,0.0000000,0.0072866,0.0000000,0.0000000,0.0000000,0.0527146,0.0000000,0.0000000,0.0072866,0.0000000,0.0000000,0.0000000,0.0527146,0.0000000,0.0000000,0.0072866,0.0072866,0.0000000,0.0000000,0.0019973,0.0000000,0.0000000,0.0000000,0.0072866,0.0000000,0.0000000,0.0019973,0.0000000,0.0000000,0.0000000,0.0072866,0.0000000,0.0000000,0.0019973
65.4538550,,1.0098701,-0.9866965,-0.1625573,-0.0004518,0.0022091,,,,0.0000000,0.0000000,0.0000000,1.1375118,-7.1476393,-21.3477974,0.0000000,0.0000000,0.0000000,0.1009870,0.0512752,0.0000000,0.0000000,0.0070876,0.0000000,0.0000000,0.0000000,0.0512752,0.0000000,0.0000000,0.0070876,0.0000000,0.0000000,0.0000000,0.0512752,0.0000000,0.0000000,0.0070876,0.0070876,0.0000000,0.0000000,0.0019698,0.0000000,0.0000000,0.0000000,0.0070876,0.0000000,0.0000000,0.0019698,0.0000000,0.0000000,0.0000000,0.0070876,0.0000000,0.0000000,0.0019698
65.4676050,1.0003999,,-0.9866965,-0.1625573,-0.0004518,0.0022091,0.0038010,0.0028696,0.0070606,,,,1.1375118,-7.1476393,-21.3477974,0.0000000,0.0000000,0.0000000,0.0200080,0.0515588,0.0000000,0.0000000,0.0071271,0.0000000,0.0000000,0.0000000,0.0515588,0.0000000,0.0000000,0.0071271,0.0000000,0.0000000,0.0000000,0.0515588,0.0000000,0.0000000,0.0071271,0.0071271,0.0000000,0.0000000,0.0019753,0.0000000,0.0000000,0.0000000,0.0071271,0.0000000,0.0000000,0.0019753,0.0000000,0.0000000,0.0000000,0.0071271,0.0000000,0.0000000,0.0019753
65.4804970,1.2994500,,-0.9866965,-0.1625573,-0.0004763,0.0022343,0.0056847,-0.0020289,0.0057276,,,,1.1375118,-7.1476393,-21.3477974,0.0000000,0.0000000,0.0000000,0.0259890,0.0519292,0.0000000,0.0000000,0.0071785,0.0000000,0.0000000,0.0000000,0.0519292,0.0000000,0.0000000,0.0071785,0.0000000,0.0000000,0.0000000,0.0519292,0.0000000,0.0000000,0.0071785,0.0071785,0.0000000,0.0000000,0.0019824,0.0000000,0.0000000,0.0000000,0.0071785,0.0000000,0.0000000,0.0019824,0.0000000,0.0000000,0.0000000,0.0071785,0.0000000,0.0000000,0.0019824
65.5018390,1.0502501,,-0.9866964,-0.1625573,-0.0004882,0.0022636,0.0078396,-0.0042036,-0.0034839,,,,1.1375118,-7.1476393,-21.3477974,0.0000000,0.0000000,0.0000000,0.0210050,0.0522308,0.0000000,0.0000000,0.0072202,0.0000000,0.0000000,0.0000000,0.0522308,0.0000000,0.0000000,0.0072202,0.0000000,0.0000000,0.0000000,0.0522308,0.0000000,0.0000000,0.0072202,0.0072202,0.0000000,0.0000000,0.0019882,0.0000000,0.0000000,0.0000000,0.0072202,0.0000000,0.0000000,0.0019882,0.0000000,0.0000000,0.0000000,0.0072202,0.0000000,0.0000000,0.0019882
65.5221280,0.9998000,,-0.9866964,-0.1625573,-0.0005050,0.0022797,0.0037672,-0.0040702,-0.0054040,,,,1.1375118,-7.1476393,-21.3477974,0.0000000,0.0000000,0.0000000,0.0199960,0.0525196,0.0000000,0.0000000,0.0072600,0.0000000,0.0000000,0.0000000,0.0525196,0.0000000,0.0000000,0.0072600,0.0000000,0.0000000,0.0000000,0.0525196,0.0000000,0.0000000,0.0072600,0.0072600,0.0000000,0.0000000,0.0019937,0.0000000,0.0000000,0.0000000,0.0072600,0.0000000,0.0000000,0.0019937,0.0000000,0.0000000,0.0000000,0.0072600,0.0000000,0.0000000,0.0019937
65.5419900,0.9999500,,-0.9866963,-0.1625573,-0.0005063,0.0022958,0.0078498,-0.0069103,-0.0053876,,,,1.1375118,-7.1476393,-21.3477974,0.0000000,0.0000000,0.0000000,0.0199990,0.0528099,0.0000000,0.0000000,0.0072999,0.0000000,0.0000000,0.0000000,0.0528099,0.0000000,0.0000000,0.0072999,0.0000000,0.0000000,0.0000000,0.0528099,0.0000000,0.0000000,0.0072999,0.0072999,0.0000000,0.0000000,0.0019991,0.0000000,0.0000000,0.0000000,0.0072999,0.0000000,0.0000000,0.0019991,0.0000000,0.0000000,0.0000000,0.0072999,0.0000000,0.0000000,0.0019991
65.5578860,,0.9999900,-0.9866963,-0.1625573,-0.0005063,0.0022776,,,,0.0000000,0.0000000,0.0000000,1.1375118,-7.1476393,-21.3477974,0.0000000,0.0000000,0.0000000,0.0999990,0.0513653,0.0000000,0.0000000,0.0071002,0.0000000,0.0000000,0.0000000,0.0513653,0.0000000,0.0000000,0.0071002,0.0000000,0.0000000,0.0000000,0.0513653,0.0000000,0.0000000,0.0071002,0.0071002,0.0000000,0.0000000,0.0019715,0.0000000,0.0000000,0.0000000,0.0071002,0.0000000,0.0000000,0.0019715,0.0000000,0.0000000,0.0000000,0.0071002,0.0000000,0.0000000,0.0019715
65.5715920,1.0000000,,-0.9866964,-0.1625573,-0.0004857,0.0022776,0.0023685,-0.0064230,-0.0002524,,,,1.1375118,-7.1476393,-21.3477974,0.0000000,0.0000000,0.0000000,0.0200000,0.0516493,0.0000000,0.0000000,0.0071397,0.0000000,0.0000000,0.0000000,0.0516493,0.0000000,0.0000000,0.0071397,0.0000000,0.0000000,0.0000000,0.0516493,0.0000000,0.0000000,0.0071397,0.0071397,0.0000000,0.0000000,0.0019770,0.0000000,0.0000000,0.0000000,0.0071397,0.0000000,0.0000000,0.0019770,0.0000000,0.0000000,0.0000000,0.0071397,0.0000000,0.0000000,0.0019770
65.5847060,1.1507500,,-0.9866964,-0.1625573,-0.0004919,0.0022433,0.0108354,0.0018239,0.0064656,,,,1.1375118,-7.1476393,-21.3477974,0.0000000,0.0000000,0.0000000,0.0230150,0.0519780,0.0000000,0.0000000,0.0071853,0.0000000,0.0000000,0.0000000,0.0519780,0.0000000,0.0000000,0.0071853,0.0000000,0.0000000,0.0000000,0.0519780,0.0000000,0.0000000,0.0071853,0.0071853,0.0000000,0.0000000,0.0019833,0.0000000,0.0000000,0.0000000,0.0071853,0.0000000,0.0000000,0.0019833,0.0000000,0.0000000,0.0000000,0.0071853,0.0000000,0.0000000,0.0019833
65.6049280,0.9995000,,-0.9866965,-0.1625573,-0.0004830,0.0022376,0.0075234,0.0047495,0.0066508,,,,1.1375118,-7.1476393,-21.3477974,0.0000000,0.0000000,0.0000000,0.0199900,0.0522652,0.0000000,0.0000000,0.0072250,0.0000000,0.0000000,0.0000000,0.0522652,0.0000000,0.0000000,0.0072250,0.0000000,0.0000000,0.0000000,0.0522652,0.0000000,0.0000000,0.0072250,0.0072250,0.0000000,0.0000000,0.0019888,0.0000000,0.0000000,0.0000000,0.0072250,0.0000000,0.0000000,0.0019888,0.0000000,0.0000000,0.0000000,0.0072250,0.0000000,0.0000000,0.0019888
65.6247200,1.0005001,,-0.9866964,-0.1625574,-0.0005093,0.0022549,0.0079960,0.0028249,0.0091848,,,,1.1375118,-7.1476393,-21.3477974,0.0000000,0.0000000,0.0000000,0.0200100,0.0525544,0.0000000,0.0000000,0.0072648,0.0000000,0.0000000,0.0000000,0.0525544,0.0000000,0.0000000,0.0072648,0.0000000,0.0000000,0.0000000,0.0525544,0.0000000,0.0000000,0.0072648,0.0072648,0.0000000,0.0000000,0.0019943,0.0000000,0.0000000,0.0000000,0.0072648,0.0000000,0.0000000,0.0019943,0.0000000,0.0000000,0.0000000,0.0072648,0.0000000,0.0000000,0.0019943
65.6456890,1.0495000,,-0.9866964,-0.1625573,-0.0005037,0.0022776,-0.0076063,0.0038462,0.0014186,,,,1.1375118,-7.1476393,-21.3477974,0.0000000,0.0000000,0.0000000,0.0209900,0.0528594,0.0000000,0.0000000,0.0073068,0.0000000,0.0000000,0.0000000,0.0528594,0.0000000,0.0000000,0.0073068,0.0000000,0.0000000,0.0000000,0.0528594,0.0000000,0.0000000,0.0073068,0.0073068,0.0000000,0.0000000,0.0020001,0.0000000,0.0000000,0.0000000,0.0073068,0.0000000,0.0000000,0.0020001,0.0000000,0.0000000,0.0000000,0.0073068,0.0000000,0.0000000,0.0020001
65.6617080,,1.0000700,-0.9866964,-0.1625573,-0.0005037,0.0022776,,,,0.0000000,0.0000000,0.0000000,1.1375118,-7.1476393,-21.3477974,0.0000000,0.0000000,0.0000000,0.1000070,0.0514121,0.0000000,0.0000000,0.0071067,0.0000000,0.0000000,0.0000000,0.0514121,0.0000000,0.0000000,0.0071067,0.0000000,0.0000000,0.0000000,0.0514121,0.0000000,0.0000000,0.0071067,0.0071067,0.0000000,0.0000000,0.0019724,0.0000000,0.0000000,0.0000000,0.0071067,0.0000000,0.0000000,0.0019724,0.0000000,0.0000000,0.0000000,0.0071067,0.0000000,0.0000000,0.0019724
65.6752430,1.0999000,,-0.9866964,-0.1625574,-0.0005091,0.0022782,-0.0061454,0.0050664,0.0016858,,,,1.1375118,-7.1476393,-21.3477974,0.0000000,0.0000000,0.0000000,0.0219980,0.0517248,0.0000000,0.0000000,0.0071502,0.0000000,0.0000000,0.0000000,0.0517248,0.0000000,0.0000000,0.0071502,0.0000000,0.0000000,0.0000000,0.0517248,0.0000000,0.0000000,0.0071502,0.0071502,0.0000000,0.0000000,0.0019785,0.0000000,0.0000000,0.0000000,0.0071502,0.0000000,0.0000000,0.0019785,0.0000000,0.0000000,0.0000000,0.0071502,0.0000000,0.0000000,0.0019785
65.6890770,1.0501500,,-0.9866963,-0.1625574,-0.0005200,0.0023013,-0.0012874,0.0020602,-0.0064813,,,,1.1375118,-7.1476393,-21.3477974,0.0000000,0.0000000,0.0000000,0.0210030,0.0520251,0.0000000,0.0000000,0.0071918,0.0000000,0.0000000,0.0000000,0.0520251,0.0000000,0.0000000,0.0071918,0.0000000,0.0000000,0.0000000,0.0520251,0.0000000,0.0000000,0.0071918,0.0071918,0.0000000,0.0000000,0.0019842,0.0000000,0.0000000,0.0000000,0.0071918,0.0000000,0.0000000,0.0019842,0.0000000,0.0000000,0.0000000,0.0071918,0.0000000,0.0000000,0.0019842
65.7089080,1.0002999,,-0.9866963,-0.1625575,-0.0005494,0.0022841,0.0047655,0.0065919,-0.0061703,,,,1.1375118,-7.1476393,-21.3477974,0.0000000,0.0000000,0.0000000,0.0200060,0.0523129,0.0000000,0.0000000,0.0072315,0.0000000,0.0000000,0.0000000,0.0523129,0.0000000,0.0000000,0.0072315,0.0000000,0.0000000,0.0000000,0.0523129,0.0000000,0.0000000,0.0072315,0.0072315,0.0000000,0.0000000,0.0019897,0.0000000,0.0000000,0.0000000,0.0072315,0.0000000,0.0000000,0.0019897,0.0000000,0.0000000,0.0000000,0.0072315,0.0000000,0.0000000,0.0019897
65.7286800,0.9996000,,-0.9866964,-0.1625575,-0.0005372,0.0022609,-0.0009360,0.0061570,0.0000887,,,,1.1375118,-7.1476393,-21.3477974,0.0000000,0.0000000,0.0000000,0.0199920,0.0526020,0.0000000,0.0000000,0.0072714,0.0000000,0.0000000,0.0000000,0.0526020,0.0000000,0.0000000,0.0072714,0.0000000,0.0000000,0.0000000,0.0526020,0.0000000,0.0000000,0.0072714,0.0072714,0.0000000,0.0000000,0.0019952,0.0000000,0.0000000,0.0000000,0.0072714,0.0000000,0.0000000,0.0019952,0.0000000,0.0000000,0.0000000,0.0072714,0.0000000,0.0000000,0.0019952
65.7486090,0.9999500,,-0.9866964,-0.1625574,-0.0005124,0.0022625,0.0028355,-0.0035515,0.0005326,,,,1.1375118,-7.1476393,-21.3477974,0.0000000,0.0000000,0.0000000,0.0199990,0.0528929,0.0000000,0.0000000,0.0073113,0.0000000,0.0000000,0.0000000,0.0528929,0.0000000,0.0000000,0.0073113,0.0000000,0.0000000,0.0000000,0.0528929,0.0000000,0.0000000,0.0073113,0.0073113,0.0000000,0.0000000,0.0020007,0.0000000,0.0000000,0.0000000,0.0073113,0.0000000,0.0000000,0.0020007,0.0000000,0.0000000,0.0000000,0.0073113,0.0000000,0.0000000,0.0020007
65.7653750,,1.0200399,-0.9866964,-0.1625574,-0.0005124,0.0022625,,,,0.0000000,0.0000000,0.0000000,1.1375118,-7.1476393,-21.3477974,0.0000000,0.0000000,0.0000000,0.1020040,0.0514438,0.0000000,0.0000000,0.0071110,0.0000000,0.0000000,0.0000000,0.0514438,0.0000000,0.0000000,0.0071110,0.0000000,0.0000000,0.0000000,0.0514438,0.0000000,0.0000000,0.0071110,0.0071110,0.0000000,0.0000000,0.0019730,0.0000000,0.0000000,0.0000000,0.0071110,0.0000000,0.0000000,0.0019730,0.0000000,0.0000000,0.0000000,0.0071110,0.0000000,0.0000000,0.0019730
65.7781150,1.1003000,,-0.9866964,-0.1625573,-0.0004869,0.0022790,0.0057207,-0.0059261,-0.0063255,,,,1.1375118,-7.1476393,-21.3477974,0.0000000,0.0000000,0.0000000,0.0220060,0.0517567,0.0000000,0.0000000,0.0071545,0.0000000,0.0000000,0.0000000,0.0517567,0.0000000,0.0000000,0.0071545,0.0000000,0.0000000,0.0000000,0.0517567,0.0000000,0.0000000,0.0071545,0.0071545,0.0000000,0.0000000,0.0019790,0.0000000,0.0000000,0.0000000,0.0071545,0.0000000,0.0000000,0.0019790,0.0000000,0.0000000,0.0000000,0.0071545,0.0000000,0.0000000,0.0019790
65.7927620,1.0995500,,-0.9866964,-0.1625573,-0.0004701,0.0022532,-0.0008780,-0.0022993,-0.0024303,,,,1.1375118,-7.1476393,-21.3477974,0.0000000,0.0000000,0.0000000,0.0219910,0.0520714,0.0000000,0.0000000,0.0071981,0.0000000,0.0000000,0.0000000,0.0520714,0.0000000,0.0000000,0.0071981,0.0000000,0.0000000,0.0000000,0.0520714,0.0000000,0.0000000,0.0071981,0.0071981,0.0000000,0.0000000,0.0019851,0.0000000,0.0000000,0.0000000,0.0071981,0.0000000,0.0000000,0.0019851,0.0000000,0.0000000,0.0000000,0.0071981,0.0000000,0.0000000,0.0019851
65.8141800,1.0001501,,-0.9866965,-0.1625573,-0.0004409,0.0022238,-0.0031551,0.0007119,-0.0053656,,,,1.1375118,-7.1476393,-21.3477974,0.0000000,0.0000000,0.0000000,0.0200030,0.0523594,0.0000000,0.0000000,0.0072378,0.0000000,0.0000000,0.0000000,0.0523594,0.0000000,0.0000000,0.0072378,0.0000000,0.0000000,0.0000000,0.0523594,0.0000000,0.0000000,0.0072378,0.0072378,0.0000000,0.0000000,0.0019906,0.0000000,0.0000000,0.0000000,0.0072378,0.0000000,0.0000000,0.0019906,0.0000000,0.0000000,0.0000000,0.0072378,0.0000000,0.0000000,0.0019906
65.8329370,0.9998500,,-0.9866965,-0.1625573,-0.0004409,0.0022034,-0.0072462,0.0048802,0.0019559,,,,1.1375118,-7.1476393,-21.3477974,0.0000000,0.0000000,0.0000000,0.0199970,0.0526488,0.0000000,0.0000000,0.0072777,0.0000000,0.0000000,0.0000000,0.0526488,0.0000000,0.0000000,0.0072777,0.0000000,0.0000000,0.0000000,0.0526488,0.0000000,0.0000000,0.0072777,0.0072777,0.0000000,0.0000000,0.0019961,0.0000000,0.0000000,0.0000000,0.0072777,0.0000000,0.0000000,0.0019961,0.0000000,0.0000000,0.0000000,0.0072777,0.0000000,0.0000000,0.0019961
65.8528620,1.0005500,,-0.9866965,-0.1625573,-0.0004294,0.0022058,-0.0080558,-0.0003294,0.0000014,,,,1.1375118,-7.1476393,-21.3477974,0.0000000,0.0000000,0.0000000,0.0200110,0.0529401,0.0000000,0.0000000,0.0073177,0.0000000,0.0000000,0.0000000,0.0529401,0.0000000,0.0000000,0.0073177,0.0000000,0.0000000,0.0000000,0.0529401,0.0000000,0.0000000,0.0073177,0.0073177,0.0000000,0.0000000,0.0020015,0.0000000,0.0000000,0.0000000,0.0073177,0.0000000,0.0000000,0.0020015,0.0000000,0.0000000,0.0000000,0.0073177,0.0000000,0.0000000,0.0020015
65.8691220,,0.9999100,-0.9866965,-0.1625573,-0.0004294,0.0022058,,,,0.0000000,0.0000000,0.0000000,1.1375118,-7.1476393,-21.3477974,0.0000000,0.0000000,0.0000000,0.0999910,0.0514885,0.0000000,0.0000000,0.0071170,0.0000000,0.0000000,0.0000000,0.0514885,0.0000000,0.0000000,0.0071170,0.0000000,0.0000000,0.0000000,0.0514885,0.0000000,0.0000000,0.0071170,0.0071170,0.0000000,0.0000000,0.0019738,0.0000000,0.0000000,0.0000000,0.0071170,0.0000000,0.0000000,0.0019738,0.0000000,0.0000000,0.0000000,0.0071170,0.0000000,0.0000000,0.0019738
65.8837360,1.0995500,,-0.9866965,-0.1625572,-0.0004144,0.0022266,-0.0064922,-0.0085036,-0.0026849,,,,1.1375118,-7.1476393,-21.3477974,0.0000000,0.0000000,0.0000000,0.0219910,0.0518015,0.0000000,0.0000000,0.0071605,0.0000000,0.0000000,0.0000000,0.0518015,0.0000000,0.0000000,0.0071605,0.0000000,0.0000000,0.0000000,0.0518015,0.0000000,0.0000000,0.0071605,0.0071605,0.0000000,0.0000000,0.0019798,0.0000000,0.0000000,0.0000000,0.0071605,0.0000000,0.0000000,0.0019798,0.0000000,0.0000000,0.0000000,0.0071605,0.0000000,0.0000000,0.0019798
65.8967850,1.0999000,,-0.9866966,-0.1625572,-0.0003965,0.0021778,-0.0044515,-0.0009864,-0.0013424,,,,1.1375118,-7.1476393,-21.3477974,0.0000000,0.0000000,0.0000000,0.0219980,0.0521165,0.0000000,0.0000000,0.0072041,0.0000000,0.0000000,0.0000000,0.0521165,0.0000000,0.0000000,0.0072041,0.0000000,0.0000000,0.0000000,0.0521165,0.0000000,0.0000000,0.0072041,0.0072041,0.0000000,0.0000000,0.0019859,0.0000000,0.0000000,0.0000000,0.0072041,0.0000000,0.0000000,0.0019859,0.0000000,0.0000000,0.0000000,0.0072041,0.0000000,0.0000000,0.0019859
65.9191910,1.0501500,,-0.9866967,-0.1625572,-0.0003730,0.0021540,-0.0109691,-0.0011265,-0.0009154,,,,1.1375118,-7.1476393,-21.3477974,0.0000000,0.0000000,0.0000000,0.0210030,0.0524191,0.0000000,0.0000000,0.0072459,0.0000000,0.0000000,0.0000000,0.0524191,0.0000000,0.0000000,0.0072459,0.0000000,0.0000000,0.0000000,0.0524191,0.0000000,0.0000000,0.0072459,0.0072459,0.0000000,0.0000000,0.0019916,0.0000000,0.0000000,0.0000000,0.0072459,0.0000000,0.0000000,0.0019916,0.0000000,0.0000000,0.0000000,0.0072459,0.0000000,0.0000000,0.0019916
65.9379140,0.9998500,,-0.9866967,-0.1625572,-0.0003719,0.0021305,-0.0035009,0.0097593,-0.0041198,,,,1.1375118,-7.1476393,-21.3477974,0.0000000,0.0000000,0.0000000,0.0199970,0.0527089,0.0000000,0.0000000,0.0072858,0.0000000,0.0000000,0.0000000,0.0527089,0.0000000,0.0000000,0.0072858,0.0000000,0.0000000,0.0000000,0.0527089,0.0000000,0.0000000,0.0072858,0.0072858,0.0000000,0.0000000,0.0019971,0.0000000,0.0000000,0.0000000,0.0072858,0.0000000,0.0000000,0.0019971,0.0000000,0.0000000,0.0000000,0.0072858,0.0000000,0.0000000,0.0019971
65.9571290,,1.0100000,-0.9866968,-0.1625572,-0.0003596,0.0021126,,,,0.0000000,0.0000000,0.0000000,1.1375118,-7.1476393,-21.3477974,0.0000000,0.0000000,0.0000000,0.1010000,0.0512698,0.0000000,0.0000000,0.0070868,0.0000000,0.0000000,0.0000000,0.0512698,0.0000000,0.0000000,0.0070868,0.0000000,0.0000000,0.0000000,0.0512698,0.0000000,0.0000000,0.0070868,0.0070868,0.0000000,0.0000000,0.0019696,0.0000000,0.0000000,0.0000000,0.0070868,0.0000000,0.0000000,0.0019696,0.0000000,0.0000000,0.0000000,0.0070868,0.0000000,0.0000000,0.0019696
65.9717370,1.0007000,,-0.9866968,-0.1625572,-0.0003596,0.0021126,0.0002561,0.0095794,-0.0025482,,,,1.1375118,-7.1476393,-21.3477974,0.0000000,0.0000000,0.0000000,0.0200140,0.0515534,0.0000000,0.0000000,0.0071263,0.0000000,0.0000000,0.0000000,0.0515534,0.0000000,0.0000000,0.0071263,0.0000000,0.0000000,0.0000000,0.0515534,0.0000000,0.0000000,0.0071263,0.0071263,0.0000000,0.0000000,0.0019751,0.0000000,0.0000000,0.0000000,0.0071263,0.0000000,0.0000000,0.0019751,0.0000000,0.0000000,0.0000000,0.0071263,0.0000000,0.0000000,0.0019751
65.9861980,1.3493000,,-0.9866967,-0.1625572,-0.0003723,0.0021249,0.0042861,0.0048889,-0.0005417,,,,1.1375118,-7.1476393,-21.3477974,0.0000000,0.0000000,0.0000000,0.0269860,0.0519380,0.0000000,0.0000000,0.0071797,0.0000000,0.0000000,0.0000000,0.0519380,0.0000000,0.0000000,0.0071797,0.0000000,0.0000000,0.0000000,0.0519380,0.0000000,0.0000000,0.0071797,0.0071797,0.0000000,0.0000000,0.0019825,0.0000000,0.0000000,0.0000000,0.0071797,0.0000000,0.0000000,0.0019825,0.0000000,0.0000000,0.0000000,0.0071797,0.0000000,0.0000000,0.0019825
66.0048850,1.0003999,,-0.9866967,-0.1625572,-0.0003626,0.0021362,0.0014488,0.0008499,-0.0010033,,,,1.1375118,-7.1476393,-21.3477974,0.0000000,0.0000000,0.0000000,0.0200080,0.0522254,0.0000000,0.0000000,0.0072194,0.0000000,0.0000000,0.0000000,0.0522254,0.0000000,0.0000000,0.0072194,0.0000000,0.0000000,0.0000000,0.0522254,0.0000000,0.0000000,0.0072194,0.0072194,0.0000000,0.0000000,0.0019880,0.0000000,0.0000000,0.0000000,0.0072194,0.0000000,0.0000000,0.0019880,0.0000000,0.0000000,0.0000000,0.0072194,0.0000000,0.0000000,0.0019880
66.0261870,1.0001000,,-0.9866967,-0.1625572,-0.0003617,0.0021569,-0.0004734,-0.0013908,-0.0061169,,,,1.1375118,-7.1476393,-21.3477974,0.0000000,0.0000000,0.0000000,0.0200020,0.0525142,0.0000000,0.0000000,0.0072592,0.0000000,0.0000000,0.0000000,0.0525142,0.0000000,0.0000000,0.0072592,0.0000000,0.0000000,0.0000000,0.0525142,0.0000000,0.0000000,0.0072592,0.0072592,0.0000000,0.0000000,0.0019935,0.0000000,0.0000000,0.0000000,0.0072592,0.0000000,0.0000000,0.0019935,0.0000000,0.0000000,0.0000000,0.0072592,0.0000000,0.0000000,0.0019935
66.0449150,0.9999500,,-0.9866967,-0.1625572,-0.0003734,0.0021480,0.0046537,0.0033100,0.0028009,,,,1.1375118,-7.1476393,-21.3477974,0.0000000,0.0000000,0.0000000,0.0199990,0.0528045,0.0000000,0.0000000,0.0072991,0.0000000,0.0000000,0.0000000,0.0528045,0.0000000,0.0000000,0.0072991,0.0000000,0.0000000,0.0000000,0.0528045,0.0000000,0.0000000,0.0072991,0.0072991,0.0000000,0.0000000,0.0019990,0.0000000,0.0000000,0.0000000,0.0072991,0.0000000,0.0000000,0.0019990,0.0000000,0.0000000,0.0000000,0.0072991,0.0000000,0.0000000,0.0019990
66.0607360,,0.9999800,-0.9866967,-0.1625572,-0.0003734,0.0021480,,,,0.0000000,0.0000000,0.0000000,1.1375118,-7.1476393,-21.3477974,0.0000000,0.0000000,0.0000000,0.0999980,0.0513602,0.0000000,0.0000000,0.0070995,0.0000000,0.0000000,0.0000000,0.0513602,0.0000000,0.0000000,0.0070995,0.0000000,0.0000000,0.0000000,0.0513602,0.0000000,0.0000000,0.0070995,0.0070995,0.0000000,0.0000000,0.0019714,0.0000000,0.0000000,0.0000000,0.0070995,0.0000000,0.0000000,0.0019714,0.0000000,0.0000000,0.0000000,0.0070995,0.0000000,0.0000000,0.0019714
66.0737100,0.9998500,,-0.9866967,-0.1625572,-0.0003710,0.0021401,-0.0027772,-0.0009390,-0.0010409,,,,1.1375118,-7.1476393,-21.3477974,0.0000000,0.0000000,0.0000000,0.0199970,0.0516441,0.0000000,0.0000000,0.0071390,0.0000000,0.0000000,0.0000000,0.0516441,0.0000000,0.0000000,0.0071390,0.0000000,0.0000000,0.0000000,0.0516441,0.0000000,0.0000000,0.0071390,0.0071390,0.0000000,0.0000000,0.0019769,0.0000000,0.0000000,0.0000000,0.0071390,0.0000000,0.0000000,0.0019769,0.0000000,0.0000000,0.0000000,0.0071390,0.0000000,0.0000000,0.0019769
66.0868480,1.0997001,,-0.9866670,-0.1627309,-0.0003130,0.0025561,-0.0367890,-0.1379588,0.0119231,,,,1.1375118,-7.1476393,-21.3477974,0.0000000,0.0000000,0.0000000,0.0219940,0.0519582,0.0000000,0.0000000,0.0071825,0.0000000,0.0000000,0.0000000,0.0519582,0.0000000,0.0000000,0.0071825,0.0000000,0.0000000,0.0000000,0.0519582,0.0000000,0.0000000,0.0071825,0.0071825,0.0000000,0.0000000,0.0019829,0.0000000,0.0000000,0.0000000,0.0071825,0.0000000,0.0000000,0.0019829,0.0000000,0.0000000,0.0000000,0.0071825,0.0000000,0.0000000,0.0019829
66.1071430,1.0007000,,-0.9866328,-0.1629215,-0.0002287,0.0033843,-0.0116501,-0.2464849,0.0662490,,,,1.1374937,-7.1475930,-21.3478107,-0.0018076,0.0046051,-0.0012937,0.0200140,0.0522457,0.0000000,0.0000000,0.0072223,0.0000000,0.0000000,0.0000000,0.0522457,0.0000000,0.0000000,0.0072223,0.0000000,0.0000000,0.0000000,0.0522457,0.0000000,0.0000000,0.0072223,0.0072223,0.0000000,0.0000000,0.0019884,0.0000000,0.0000000,0.0000000,0.0072223,0.0000000,0.0000000,0.0019884,0.0000000,0.0000000,0.0000000,0.0072223,0.0000000,0.0000000,0.0019884
66.1269270,0.9999000,,-0.9866201,-0.1629916,-0.0001107,0.0037432,0.0098762,-0.0322772,0.1644569,,,,1.1374937,-7.1475930,-21.3478107,0.0000000,0.0000000,0.0000000,0.0199980,0.0525345,0.0000000,0.0000000,0.0072621,0.0000000,0.0000000,0.0000000,0.0525345,0.0000000,0.0000000,0.0072621,0.0000000,0.0000000,0.0000000,0.0525345,0.0000000,0.0000000,0.0072621,0.0072621,0.0000000,0.0000000,0.0019939,0.0000000,0.0000000,0.0000000,0.0072621,0.0000000,0.0000000,0.0019939,0.0000000,0.0000000,0.0000000,0.0072621,0.0000000,0.0000000,0.0019939
66.1479800,1.0495000,,-0.9866902,-0.1625514,-0.0006363,0.0042673,0.1048222,-0.2737985,0.0961216,,,,1.1374962,-7.1475282,-21.3478317,0.0002401,0.0061663,-0.0019645,0.0209900,0.0528394,0.0000000,0.0000000,0.0073040,0.0000000,0.0000000,0.0000000,0.0528394,0.0000000,0.0000000,0.0073040,0.0000000,0.0000000,0.0000000,0.0528394,0.0000000,0.0000000,0.0073040,0.0073040,0.0000000,0.0000000,0.0019997,0.0000000,0.0000000,0.0000000,0.0073040,0.0000000,0.0000000,0.0019997,0.0000000,0.0000000,0.0000000,0.0073040,0.0000000,0.0000000,0.0019997
66.1640930,,1.0000700,-0.9866902,-0.1625514,-0.0006363,0.0042673,,,,-0.3510347,-0.1517339,-0.0012630,1.1278889,-7.1516843,-21.3478661,-0.0010879,0.0055918,-0.0019691,0.1000070,0.0513932,0.0000000,0.0000000,0.0071041,0.0000000,0.0000000,0.0000000,0.0513932,0.0000000,0.0000000,0.0071041,0.0000000,0.0000000,0.0000000,0.0513932,0.0000000,0.0000000,0.0071041,0.0071041,0.0000000,0.0000000,0.0019720,0.0000000,0.0000000,0.0000000,0.0071041,0.0000000,0.0000000,0.0019720,0.0000000,0.0000000,0.0000000,0.0071041,0.0000000,0.0000000,0.0019720
66.1787390,1.0999500,,-0.9866997,-0.1624840,-0.0006520,0.0046525,0.3754015,-0.4494145,-0.0034758,,,,1.1279162,-7.1514292,-21.3479080,0.0035643,0.0176033,-0.0017809,0.0219990,0.0517058,0.0000000,0.0000000,0.0071475,0.0000000,0.0000000,0.0000000,0.0517058,0.0000000,0.0000000,0.0071475,0.0000000,0.0000000,0.0000000,0.0517058,0.0000000,0.0000000,0.0071475,0.0071475,0.0000000,0.0000000,0.0019781,0.0000000,0.0000000,0.0000000,0.0071475,0.0000000,0.0000000,0.0019781,0.0000000,0.0000000,0.0000000,0.0071475,0.0000000,0.0000000,0.0019781
66.1920460,1.0999500,,-0.9867615,-0.1621053,-0.0008504,0.0047470,0.2422814,-0.4783922,1.0204561,,,,1.1280131,-7.1509113,-21.3481922,0.0052503,0.0294954,-0.0241160,0.0219990,0.0520202,0.0000000,0.0000000,0.0071911,0.0000000,0.0000000,0.0000000,0.0520202,0.0000000,0.0000000,0.0071911,0.0000000,0.0000000,0.0000000,0.0520202,0.0000000,0.0000000,0.0071911,0.0071911,0.0000000,0.0000000,0.0019841,0.0000000,0.0000000,0.0000000,0.0071911,0.0000000,0.0000000,0.0019841,0.0000000,0.0000000,0.0000000,0.0071911,0.0000000,0.0000000,0.0019841
66.2119960,1.0005500,,-0.9868288,-0.1616701,-0.0012022,0.0054030,-0.1753147,-0.4060739,0.4520844,,,,1.1280590,-7.1502542,-21.3487644,-0.0006618,0.0361767,-0.0330930,0.0200110,0.0523080,0.0000000,0.0000000,0.0072309,0.0000000,0.0000000,0.0000000,0.0523080,0.0000000,0.0000000,0.0072309,0.0000000,0.0000000,0.0000000,0.0523080,0.0000000,0.0000000,0.0072309,0.0072309,0.0000000,0.0000000,0.0019896,0.0000000,0.0000000,0.0000000,0.0072309,0.0000000,0.0000000,0.0019896,0.0000000,0.0000000,0.0000000,0.0072309,0.0000000,0.0000000,0.0019896
