t,predict_cpu,update_cpu,quat_x,quat_y,quat_z,quat_w,accel_x,accel_y,accel_z,of_x,of_y,of_z,x_x,x_y,x_z,x_vx,x_vy,x_vz,dt,P_0,P_1,P_2,P_3,P_4,P_5,P_6,P_7,P_8,P_9,P_10,P_11,P_12,P_13,P_14,P_15,P_16,P_17,P_18,P_19,P_20,P_21,P_22,P_23,P_24,P_25,P_26,P_27,P_28,P_29,P_30,P_31,P_32,P_33,P_34,P_35
39.3298940,1.0499500,,-0.9021400,-0.4314357,0.0005405,0.0025084,-0.0018395,0.0155017,0.0040455,,,,3.1761453,-6.6433659,-21.3250542,0.0000000,0.0000000,0.0000000,0.0209990,0.0658965,0.0000000,0.0000000,0.0085819,0.0000000,0.0000000,0.0000000,0.0658965,0.0000000,0.0000000,0.0085819,0.0000000,0.0000000,0.0000000,0.0658965,0.0000000,0.0000000,0.0085819,0.0085819,0.0000000,0.0000000,0.0022138,0.0000000,0.0000000,0.0000000,0.0085819,0.0000000,0.0000000,0.0022138,0.0000000,0.0000000,0.0000000,0.0085819,0.0000000,0.0000000,0.0022138
39.3458390,,1.0200100,-0.9021400,-0.4314357,0.0005405,0.0025084,,,,0.0000000,0.0000000,0.0000000,3.1761453,-6.6433659,-21.3250542,0.0000000,0.0000000,0.0000000,0.1020010,0.0641956,0.0000000,0.0000000,0.0083603,0.0000000,0.0000000,0.0000000,0.0641956,0.0000000,0.0000000,0.0083603,0.0000000,0.0000000,0.0000000,0.0641956,0.0000000,0.0000000,0.0083603,0.0083603,0.0000000,0.0000000,0.0021850,0.0000000,0.0000000,0.0000000,0.0083603,0.0000000,0.0000000,0.0021850,0.0000000,0.0000000,0.0000000,0.0083603,0.0000000,0.0000000,0.0021850
39.3597510,0.9999500,,-0.9021400,-0.4314357,0.0005486,0.0025176,0.0019107,0.0014871,0.0039759,,,,3.1761453,-6.6433659,-21.3250542,0.0000000,0.0000000,0.0000000,0.0199990,0.0645300,0.0000000,0.0000000,0.0084041,0.0000000,0.0000000,0.0000000,0.0645300,0.0000000,0.0000000,0.0084041,0.0000000,0.0000000,0.0000000,0.0645300,0.0000000,0.0000000,0.0084041,0.0084041,0.0000000,0.0000000,0.0021907,0.0000000,0.0000000,0.0000000,0.0084041,0.0000000,0.0000000,0.0021907,0.0000000,0.0000000,0.0000000,0.0084041,0.0000000,0.0000000,0.0021907
39.3727190,1.1501000,,-0.9021400,-0.4314357,0.0005337,0.0025255,0.0042436,0.0069157,0.0085797,,,,3.1761453,-6.6433659,-21.3250542,0.0000000,0.0000000,0.0000000,0.0230020,0.0649166,0.0000000,0.0000000,0.0084546,0.0000000,0.0000000,0.0000000,0.0649166,0.0000000,0.0000000,0.0084546,0.0000000,0.0000000,0.0000000,0.0649166,0.0000000,0.0000000,0.0084546,0.0084546,0.0000000,0.0000000,0.0021973,0.0000000,0.0000000,0.0000000,0.0084546,0.0000000,0.0000000,0.0021973,0.0000000,0.0000000,0.0000000,0.0084546,0.0000000,0.0000000,0.0021973
39.3939610,1.0499500,,-0.9021400,-0.4314357,0.0005467,0.0025439,0.0044564,0.0030840,0.0003836,,,,3.1761453,-6.6433659,-21.3250542,0.0000000,0.0000000,0.0000000,0.0209990,0.0652717,0.0000000,0.0000000,0.0085008,0.0000000,0.0000000,0.0000000,0.0652717,0.0000000,0.0000000,0.0085008,0.0000000,0.0000000,0.0000000,0.0652717,0.0000000,0.0000000,0.0085008,0.0085008,0.0000000,0.0000000,0.0022033,0.0000000,0.0000000,0.0000000,0.0085008,0.0000000,0.0000000,0.0022033,0.0000000,0.0000000,0.0000000,0.0085008,0.0000000,0.0000000,0.0022033
39.4162510,1.0499500,,-0.9021399,-0.4314356,0.0005677,0.0025524,0.0043416,-0.0032111,0.0011684,,,,3.1761453,-6.6433659,-21.3250542,0.0000000,0.0000000,0.0000000,0.0209990,0.0656287,0.0000000,0.0000000,0.0085471,0.0000000,0.0000000,0.0000000,0.0656287,0.0000000,0.0000000,0.0085471,0.0000000,0.0000000,0.0000000,0.0656287,0.0000000,0.0000000,0.0085471,0.0085471,0.0000000,0.0000000,0.0022093,0.0000000,0.0000000,0.0000000,0.0085471,0.0000000,0.0000000,0.0022093,0.0000000,0.0000000,0.0000000,0.0085471,0.0000000,0.0000000,0.0022093
39.4348510,0.9999500,,-0.9021399,-0.4314356,0.0005895,0.0025683,0.0008814,-0.0053516,-0.0050310,,,,3.1761453,-6.6433659,-21.3250542,0.0000000,0.0000000,0.0000000,0.0199990,0.0659705,0.0000000,0.0000000,0.0085913,0.0000000,0.0000000,0.0000000,0.0659705,0.0000000,0.0000000,0.0085913,0.0000000,0.0000000,0.0000000,0.0659705,0.0000000,0.0000000,0.0085913,0.0085913,0.0000000,0.0000000,0.0022150,0.0000000,0.0000000,0.0000000,0.0085913,0.0000000,0.0000000,0.0022150,0.0000000,0.0000000,0.0000000,0.0085913,0.0000000,0.0000000,0.0022150
39.4508370,,1.0000100,-0.9021399,-0.4314356,0.0005895,0.0025683,,,,0.0000000,0.0000000,0.0000000,3.1761453,-6.6433659,-21.3250542,0.0000000,0.0000000,0.0000000,0.1000010,0.0642658,0.0000000,0.0000000,0.0083693,0.0000000,0.0000000,0.0000000,0.0642658,0.0000000,0.0000000,0.0083693,0.0000000,0.0000000,0.0000000,0.0642658,0.0000000,0.0000000,0.0083693,0.0083693,0.0000000,0.0000000,0.0021861,0.0000000,0.0000000,0.0000000,0.0083693,0.0000000,0.0000000,0.0021861,0.0000000,0.0000000,0.0000000,0.0083693,0.0000000,0.0000000,0.0021861
39.4646760,1.0000000,,-0.9021398,-0.4314356,0.0005876,0.0025893,0.0017987,-0.0042169,-0.0012948,,,,3.1761453,-6.6433659,-21.3250542,0.0000000,0.0000000,0.0000000,0.0200000,0.0646005,0.0000000,0.0000000,0.0084131,0.0000000,0.0000000,0.0000000,0.0646005,0.0000000,0.0000000,0.0084131,0.0000000,0.0000000,0.0000000,0.0646005,0.0000000,0.0000000,0.0084131,0.0084131,0.0000000,0.0000000,0.0021918,0.0000000,0.0000000,0.0000000,0.0084131,0.0000000,0.0000000,0.0021918,0.0000000,0.0000000,0.0000000,0.0084131,0.0000000,0.0000000,0.0021918
39.4776650,1.1500000,,-0.9021398,-0.4314356,0.0005726,0.0026016,0.0071173,0.0034228,0.0049678,,,,3.1761453,-6.6433659,-21.3250542,0.0000000,0.0000000,0.0000000,0.0230000,0.0649875,0.0000000,0.0000000,0.0084636,0.0000000,0.0000000,0.0000000,0.0649875,0.0000000,0.0000000,0.0084636,0.0000000,0.0000000,0.0000000,0.0649875,0.0000000,0.0000000,0.0084636,0.0084636,0.0000000,0.0000000,0.0021984,0.0000000,0.0000000,0.0000000,0.0084636,0.0000000,0.0000000,0.0021984,0.0000000,0.0000000,0.0000000,0.0084636,0.0000000,0.0000000,0.0021984
39.4991520,1.0500000,,-0.9021398,-0.4314356,0.0005785,0.0026027,0.0076022,0.0013834,0.0056577,,,,3.1761453,-6.6433659,-21.3250542,0.0000000,0.0000000,0.0000000,0.0210000,0.0653430,0.0000000,0.0000000,0.0085098,0.0000000,0.0000000,0.0000000,0.0653430,0.0000000,0.0000000,0.0085098,0.0000000,0.0000000,0.0000000,0.0653430,0.0000000,0.0000000,0.0085098,0.0085098,0.0000000,0.0000000,0.0022044,0.0000000,0.0000000,0.0000000,0.0085098,0.0000000,0.0000000,0.0022044,0.0000000,0.0000000,0.0000000,0.0085098,0.0000000,0.0000000,0.0022044
39.5187620,1.0000000,,-0.9021398,-0.4314356,0.0005672,0.0025803,0.0000322,0.0093434,0.0035613,,,,3.1761453,-6.6433659,-21.3250542,0.0000000,0.0000000,0.0000000,0.0200000,0.0656834,0.0000000,0.0000000,0.0085539,0.0000000,0.0000000,0.0000000,0.0656834,0.0000000,0.0000000,0.0085539,0.0000000,0.0000000,0.0000000,0.0656834,0.0000000,0.0000000,0.0085539,0.0085539,0.0000000,0.0000000,0.0022101,0.0000000,0.0000000,0.0000000,0.0085539,0.0000000,0.0000000,0.0022101,0.0000000,0.0000000,0.0000000,0.0085539,0.0000000,0.0000000,0.0022101
39.5388760,1.0001000,,-0.9021398,-0.4314356,0.0005615,0.0025861,-0.0018150,0.0092036,0.0059310,,,,3.1761453,-6.6433659,-21.3250542,0.0000000,0.0000000,0.0000000,0.0200020,0.0660256,0.0000000,0.0000000,0.0085982,0.0000000,0.0000000,0.0000000,0.0660256,0.0000000,0.0000000,0.0085982,0.0000000,0.0000000,0.0000000,0.0660256,0.0000000,0.0000000,0.0085982,0.0085982,0.0000000,0.0000000,0.0022159,0.0000000,0.0000000,0.0000000,0.0085982,0.0000000,0.0000000,0.0022159,0.0000000,0.0000000,0.0000000,0.0085982,0.0000000,0.0000000,0.0022159
39.5547380,,1.0000000,-0.9021398,-0.4314356,0.0005615,0.0025861,,,,0.0000000,0.0000000,0.0000000,3.1761453,-6.6433659,-21.3250542,0.0000000,0.0000000,0.0000000,0.1000000,0.0643180,0.0000000,0.0000000,0.0083758,0.0000000,0.0000000,0.0000000,0.0643180,0.0000000,0.0000000,0.0083758,0.0000000,0.0000000,0.0000000,0.0643180,0.0000000,0.0000000,0.0083758,0.0083758,0.0000000,0.0000000,0.0021869,0.0000000,0.0000000,0.0000000,0.0083758,0.0000000,0.0000000,0.0021869,0.0000000,0.0000000,0.0000000,0.0083758,0.0000000,0.0000000,0.0021869
39.5684630,1.0004500,,-0.9021399,-0.4314356,0.0005690,0.0025594,-0.0056301,0.0108045,0.0115104,,,,3.1761453,-6.6433659,-21.3250542,0.0000000,0.0000000,0.0000000,0.0200090,0.0646532,0.0000000,0.0000000,0.0084196,0.0000000,0.0000000,0.0000000,0.0646532,0.0000000,0.0000000,0.0084196,0.0000000,0.0000000,0.0000000,0.0646532,0.0000000,0.0000000,0.0084196,0.0084197,0.0000000,0.0000000,0.0021926,0.0000000,0.0000000,0.0000000,0.0084197,0.0000000,0.0000000,0.0021926,0.0000000,0.0000000,0.0000000,0.0084197,0.0000000,0.0000000,0.0021926
39.5818170,1.1494499,,-0.9021399,-0.4314356,0.0005788,0.0025563,-0.0031355,0.0028388,0.0069759,,,,3.1761453,-6.6433659,-21.3250542,0.0000000,0.0000000,0.0000000,0.0229890,0.0650403,0.0000000,0.0000000,0.0084701,0.0000000,0.0000000,0.0000000,0.0650403,0.0000000,0.0000000,0.0084701,0.0000000,0.0000000,0.0000000,0.0650403,0.0000000,0.0000000,0.0084701,0.0084701,0.0000000,0.0000000,0.0021992,0.0000000,0.0000000,0.0000000,0.0084701,0.0000000,0.0000000,0.0021992,0.0000000,0.0000000,0.0000000,0.0084701,0.0000000,0.0000000,0.0021992
39.6029620,1.0501001,,-0.9021399,-0.4314356,0.0005738,0.0025637,0.0014993,0.0042346,0.0064176,,,,3.1761453,-6.6433659,-21.3250542,0.0000000,0.0000000,0.0000000,0.0210020,0.0653961,0.0000000,0.0000000,0.0085164,0.0000000,0.0000000,0.0000000,0.0653961,0.0000000,0.0000000,0.0085164,0.0000000,0.0000000,0.0000000,0.0653961,0.0000000,0.0000000,0.0085164,0.0085164,0.0000000,0.0000000,0.0022052,0.0000000,0.0000000,0.0000000,0.0085164,0.0000000,0.0000000,0.0022052,0.0000000,0.0000000,0.0000000,0.0085164,0.0000000,0.0000000,0.0022052
39.6228710,1.0008000,,-0.9021399,-0.4314357,0.0005640,0.0025577,-0.0066814,0.0066187,0.0056502,,,,3.1761453,-6.6433659,-21.3250542,0.0000000,0.0000000,0.0000000,0.0200160,0.0657370,0.0000000,0.0000000,0.0085606,0.0000000,0.0000000,0.0000000,0.0657370,0.0000000,0.0000000,0.0085606,0.0000000,0.0000000,0.0000000,0.0657370,0.0000000,0.0000000,0.0085606,0.0085606,0.0000000,0.0000000,0.0022110,0.0000000,0.0000000,0.0000000,0.0085606,0.0000000,0.0000000,0.0022110,0.0000000,0.0000000,0.0000000,0.0085606,0.0000000,0.0000000,0.0022110
39.6441590,,0.9999900,-0.9021399,-0.4314357,0.0005596,0.0025513,,,,0.0000000,0.0000000,0.0000000,3.1761453,-6.6433659,-21.3250542,0.0000000,0.0000000,0.0000000,0.0999990,0.0640442,0.0000000,0.0000000,0.0083401,0.0000000,0.0000000,0.0000000,0.0640442,0.0000000,0.0000000,0.0083401,0.0000000,0.0000000,0.0000000,0.0640442,0.0000000,0.0000000,0.0083401,0.0083401,0.0000000,0.0000000,0.0021822,0.0000000,0.0000000,0.0000000,0.0083401,0.0000000,0.0000000,0.0021822,0.0000000,0.0000000,0.0000000,0.0083401,0.0000000,0.0000000,0.0021822
39.6581540,1.0992000,,-0.9021399,-0.4314357,0.0005596,0.0025513,-0.0054006,0.0016995,0.0108818,,,,3.1761453,-6.6433659,-21.3250542,0.0000000,0.0000000,0.0000000,0.0219840,0.0644109,0.0000000,0.0000000,0.0083882,0.0000000,0.0000000,0.0000000,0.0644109,0.0000000,0.0000000,0.0083882,0.0000000,0.0000000,0.0000000,0.0644109,0.0000000,0.0000000,0.0083882,0.0083882,0.0000000,0.0000000,0.0021885,0.0000000,0.0000000,0.0000000,0.0083882,0.0000000,0.0000000,0.0021885,0.0000000,0.0000000,0.0000000,0.0083882,0.0000000,0.0000000,0.0021885
39.6725970,1.3999001,,-0.9021399,-0.4314357,0.0005634,0.0025400,-0.0071788,-0.0010118,0.0044643,,,,3.1761453,-6.6433659,-21.3250542,0.0000000,0.0000000,0.0000000,0.0279980,0.0648806,0.0000000,0.0000000,0.0084495,0.0000000,0.0000000,0.0000000,0.0648806,0.0000000,0.0000000,0.0084495,0.0000000,0.0000000,0.0000000,0.0648806,0.0000000,0.0000000,0.0084495,0.0084495,0.0000000,0.0000000,0.0021965,0.0000000,0.0000000,0.0000000,0.0084495,0.0000000,0.0000000,0.0021965,0.0000000,0.0000000,0.0000000,0.0084495,0.0000000,0.0000000,0.0021965
39.6939340,1.0504500,,-0.9021399,-0.4314356,0.0005869,0.0025367,-0.0048635,-0.0021004,0.0027204,,,,3.1761453,-6.6433659,-21.3250542,0.0000000,0.0000000,0.0000000,0.0210090,0.0652356,0.0000000,0.0000000,0.0084957,0.0000000,0.0000000,0.0000000,0.0652356,0.0000000,0.0000000,0.0084957,0.0000000,0.0000000,0.0000000,0.0652356,0.0000000,0.0000000,0.0084957,0.0084957,0.0000000,0.0000000,0.0022026,0.0000000,0.0000000,0.0000000,0.0084957,0.0000000,0.0000000,0.0022026,0.0000000,0.0000000,0.0000000,0.0084957,0.0000000,0.0000000,0.0022026
39.7140030,0.9996500,,-0.9021400,-0.4314356,0.0006141,0.0025298,-0.0056208,-0.0082600,0.0016044,,,,3.1761453,-6.6433659,-21.3250542,0.0000000,0.0000000,0.0000000,0.0199930,0.0655753,0.0000000,0.0000000,0.0085398,0.0000000,0.0000000,0.0000000,0.0655753,0.0000000,0.0000000,0.0085398,0.0000000,0.0000000,0.0000000,0.0655753,0.0000000,0.0000000,0.0085398,0.0085398,0.0000000,0.0000000,0.0022083,0.0000000,0.0000000,0.0000000,0.0085398,0.0000000,0.0000000,0.0022083,0.0000000,0.0000000,0.0000000,0.0085398,0.0000000,0.0000000,0.0022083
39.7353080,1.0000000,,-0.9021400,-0.4314356,0.0005988,0.0025125,0.0000582,-0.0013758,0.0061733,,,,3.1761453,-6.6433659,-21.3250542,0.0000000,0.0000000,0.0000000,0.0200000,0.0659169,0.0000000,0.0000000,0.0085840,0.0000000,0.0000000,0.0000000,0.0659169,0.0000000,0.0000000,0.0085840,0.0000000,0.0000000,0.0000000,0.0659169,0.0000000,0.0000000,0.0085840,0.0085840,0.0000000,0.0000000,0.0022140,0.0000000,0.0000000,0.0000000,0.0085840,0.0000000,0.0000000,0.0022140,0.0000000,0.0000000,0.0000000,0.0085840,0.0000000,0.0000000,0.0022140
39.7508780,,1.0000700,-0.9021400,-0.4314356,0.0005988,0.0025033,,,,0.0000000,0.0000000,0.0000000,3.1761453,-6.6433659,-21.3250542,0.0000000,0.0000000,0.0000000,0.1000070,0.0642149,0.0000000,0.0000000,0.0083624,0.0000000,0.0000000,0.0000000,0.0642149,0.0000000,0.0000000,0.0083624,0.0000000,0.0000000,0.0000000,0.0642149,0.0000000,0.0000000,0.0083624,0.0083624,0.0000000,0.0000000,0.0021851,0.0000000,0.0000000,0.0000000,0.0083624,0.0000000,0.0000000,0.0021851,0.0000000,0.0000000,0.0000000,0.0083624,0.0000000,0.0000000,0.0021851
39.7648010,1.0000501,,-0.9021400,-0.4314356,0.0005981,0.0025033,0.0014482,0.0030429,0.0050398,,,,3.1761453,-6.6433659,-21.3250542,0.0000000,0.0000000,0.0000000,0.0200010,0.0645494,0.0000000,0.0000000,0.0084061,0.0000000,0.0000000,0.0000000,0.0645494,0.0000000,0.0000000,0.0084061,0.0000000,0.0000000,0.0000000,0.0645494,0.0000000,0.0000000,0.0084061,0.0084061,0.0000000,0.0000000,0.0021909,0.0000000,0.0000000,0.0000000,0.0084061,0.0000000,0.0000000,0.0021909,0.0000000,0.0000000,0.0000000,0.0084061,0.0000000,0.0000000,0.0021909
39.7776240,1.1998500,,-0.9021400,-0.4314356,0.0005926,0.0025254,0.0008919,0.0035890,0.0069144,,,,3.1761453,-6.6433659,-21.3250542,0.0000000,0.0000000,0.0000000,0.0239970,0.0649529,0.0000000,0.0000000,0.0084588,0.0000000,0.0000000,0.0000000,0.0649529,0.0000000,0.0000000,0.0084588,0.0000000,0.0000000,0.0000000,0.0649529,0.0000000,0.0000000,0.0084588,0.0084588,0.0000000,0.0000000,0.0021977,0.0000000,0.0000000,0.0000000,0.0084588,0.0000000,0.0000000,0.0021977,0.0000000,0.0000000,0.0000000,0.0084588,0.0000000,0.0000000,0.0021977
39.7989070,1.0506001,,-0.9021400,-0.4314357,0.0005796,0.0025210,0.0015827,0.0055329,0.0083400,,,,3.1761453,-6.6433659,-21.3250542,0.0000000,0.0000000,0.0000000,0.0210120,0.0653083,0.0000000,0.0000000,0.0085050,0.0000000,0.0000000,0.0000000,0.0653083,0.0000000,0.0000000,0.0085050,0.0000000,0.0000000,0.0000000,0.0653083,0.0000000,0.0000000,0.0085050,0.0085050,0.0000000,0.0000000,0.0022037,0.0000000,0.0000000,0.0000000,0.0085050,0.0000000,0.0000000,0.0022037,0.0000000,0.0000000,0.0000000,0.0085050,0.0000000,0.0000000,0.0022037
39.8190500,0.9995000,,-0.9021400,-0.4314357,0.0005708,0.0025286,-0.0012533,0.0050553,0.0141798,,,,3.1761453,-6.6433659,-21.3250542,0.0000000,0.0000000,0.0000000,0.0199900,0.0656484,0.0000000,0.0000000,0.0085491,0.0000000,0.0000000,0.0000000,0.0656484,0.0000000,0.0000000,0.0085491,0.0000000,0.0000000,0.0000000,0.0656484,0.0000000,0.0000000,0.0085491,0.0085491,0.0000000,0.0000000,0.0022095,0.0000000,0.0000000,0.0000000,0.0085491,0.0000000,0.0000000,0.0022095,0.0000000,0.0000000,0.0000000,0.0085491,0.0000000,0.0000000,0.0022095
39.8391420,1.0000000,,-0.9021400,-0.4314356,0.0005924,0.0025297,0.0029897,0.0021462,0.0085547,,,,3.1761453,-6.6433659,-21.3250542,0.0000000,0.0000000,0.0000000,0.0200000,0.0659903,0.0000000,0.0000000,0.0085934,0.0000000,0.0000000,0.0000000,0.0659903,0.0000000,0.0000000,0.0085934,0.0000000,0.0000000,0.0000000,0.0659903,0.0000000,0.0000000,0.0085934,0.0085934,0.0000000,0.0000000,0.0022152,0.0000000,0.0000000,0.0000000,0.0085934,0.0000000,0.0000000,0.0022152,0.0000000,0.0000000,0.0000000,0.0085934,0.0000000,0.0000000,0.0022152
39.8559040,,0.9999300,-0.9021400,-0.4314356,0.0005924,0.0025502,,,,0.0000000,0.0000000,0.0000000,3.1761453,-6.6433659,-21.3250542,0.0000000,0.0000000,0.0000000,0.0999930,0.0642845,0.0000000,0.0000000,0.0083713,0.0000000,0.0000000,0.0000000,0.0642845,0.0000000,0.0000000,0.0083713,0.0000000,0.0000000,0.0000000,0.0642845,0.0000000,0.0000000,0.0083713,0.0083713,0.0000000,0.0000000,0.0021862,0.0000000,0.0000000,0.0000000,0.0083713,0.0000000,0.0000000,0.0021862,0.0000000,0.0000000,0.0000000,0.0083713,0.0000000,0.0000000,0.0021862
39.8697840,1.0000501,,-0.9021400,-0.4314356,0.0006010,0.0025502,0.0036234,-0.0061062,0.0076953,,,,3.1761453,-6.6433659,-21.3250542,0.0000000,0.0000000,0.0000000,0.0200010,0.0646194,0.0000000,0.0000000,0.0084150,0.0000000,0.0000000,0.0000000,0.0646194,0.0000000,0.0000000,0.0084150,0.0000000,0.0000000,0.0000000,0.0646194,0.0000000,0.0000000,0.0084150,0.0084150,0.0000000,0.0000000,0.0021920,0.0000000,0.0000000,0.0000000,0.0084150,0.0000000,0.0000000,0.0021920,0.0000000,0.0000000,0.0000000,0.0084150,0.0000000,0.0000000,0.0021920
39.8825860,1.1998500,,-0.9021399,-0.4314356,0.0006000,0.0025517,0.0032079,-0.0024427,0.0065332,,,,3.1761453,-6.6433659,-21.3250542,0.0000000,0.0000000,0.0000000,0.0239970,0.0650233,0.0000000,0.0000000,0.0084677,0.0000000,0.0000000,0.0000000,0.0650233,0.0000000,0.0000000,0.0084677,0.0000000,0.0000000,0.0000000,0.0650233,0.0000000,0.0000000,0.0084677,0.0084677,0.0000000,0.0000000,0.0021988,0.0000000,0.0000000,0.0000000,0.0084677,0.0000000,0.0000000,0.0021988,0.0000000,0.0000000,0.0000000,0.0084677,0.0000000,0.0000000,0.0021988
39.9039130,1.0505501,,-0.9021399,-0.4314356,0.0005996,0.0025495,0.0025118,-0.0032966,0.0005811,,,,3.1761453,-6.6433659,-21.3250542,0.0000000,0.0000000,0.0000000,0.0210110,0.0653791,0.0000000,0.0000000,0.0085140,0.0000000,0.0000000,0.0000000,0.0653791,0.0000000,0.0000000,0.0085140,0.0000000,0.0000000,0.0000000,0.0653791,0.0000000,0.0000000,0.0085140,0.0085140,0.0000000,0.0000000,0.0022048,0.0000000,0.0000000,0.0000000,0.0085140,0.0000000,0.0000000,0.0022048,0.0000000,0.0000000,0.0000000,0.0085140,0.0000000,0.0000000,0.0022048
39.9241180,0.9995500,,-0.9021399,-0.4314356,0.0006013,0.0025598,0.0041093,-0.0002902,0.0068823,,,,3.1761453,-6.6433659,-21.3250542,0.0000000,0.0000000,0.0000000,0.0199910,0.0657195,0.0000000,0.0000000,0.0085581,0.0000000,0.0000000,0.0000000,0.0657195,0.0000000,0.0000000,0.0085581,0.0000000,0.0000000,0.0000000,0.0657195,0.0000000,0.0000000,0.0085581,0.0085581,0.0000000,0.0000000,0.0022106,0.0000000,0.0000000,0.0000000,0.0085581,0.0000000,0.0000000,0.0022106,0.0000000,0.0000000,0.0000000,0.0085581,0.0000000,0.0000000,0.0022106
39.9454490,,1.0000000,-0.9021400,-0.4314356,0.0006105,0.0025433,,,,0.0000000,0.0000000,0.0000000,3.1761453,-6.6433659,-21.3250542,0.0000000,0.0000000,0.0000000,0.1000000,0.0640275,0.0000000,0.0000000,0.0083378,0.0000000,0.0000000,0.0000000,0.0640275,0.0000000,0.0000000,0.0083378,0.0000000,0.0000000,0.0000000,0.0640275,0.0000000,0.0000000,0.0083378,0.0083378,0.0000000,0.0000000,0.0021819,0.0000000,0.0000000,0.0000000,0.0083378,0.0000000,0.0000000,0.0021819,0.0000000,0.0000000,0.0000000,0.0083378,0.0000000,0.0000000,0.0021819
39.9587520,0.9999000,,-0.9021400,-0.4314356,0.0006105,0.0025433,-0.0035987,-0.0005266,0.0068591,,,,3.1761453,-6.6433659,-21.3250542,0.0000000,0.0000000,0.0000000,0.0199980,0.0643610,0.0000000,0.0000000,0.0083815,0.0000000,0.0000000,0.0000000,0.0643610,0.0000000,0.0000000,0.0083815,0.0000000,0.0000000,0.0000000,0.0643610,0.0000000,0.0000000,0.0083815,0.0083815,0.0000000,0.0000000,0.0021876,0.0000000,0.0000000,0.0000000,0.0083815,0.0000000,0.0000000,0.0021876,0.0000000,0.0000000,0.0000000,0.0083815,0.0000000,0.0000000,0.0021876
39.9718730,1.4000001,,-0.9021400,-0.4314356,0.0005894,0.0025366,0.0005581,-0.0028573,-0.0012091,,,,3.1761453,-6.6433659,-21.3250542,0.0000000,0.0000000,0.0000000,0.0280000,0.0648304,0.0000000,0.0000000,0.0084428,0.0000000,0.0000000,0.0000000,0.0648304,0.0000000,0.0000000,0.0084428,0.0000000,0.0000000,0.0000000,0.0648304,0.0000000,0.0000000,0.0084428,0.0084428,0.0000000,0.0000000,0.0021956,0.0000000,0.0000000,0.0000000,0.0084428,0.0000000,0.0000000,0.0021956,0.0000000,0.0000000,0.0000000,0.0084428,0.0000000,0.0000000,0.0021956
39.9932590,1.0005001,,-0.9021400,-0.4314357,0.0005760,0.0025200,-0.0005373,0.0025386,-0.0023135,,,,3.1761453,-6.6433659,-21.3250542,0.0000000,0.0000000,0.0000000,0.0200100,0.0651683,0.0000000,0.0000000,0.0084868,0.0000000,0.0000000,0.0000000,0.0651683,0.0000000,0.0000000,0.0084868,0.0000000,0.0000000,0.0000000,0.0651683,0.0000000,0.0000000,0.0084868,0.0084868,0.0000000,0.0000000,0.0022013,0.0000000,0.0000000,0.0000000,0.0084868,0.0000000,0.0000000,0.0022013,0.0000000,0.0000000,0.0000000,0.0084868,0.0000000,0.0000000,0.0022013
40.0120870,0.9998000,,-0.9021400,-0.4314358,0.0005527,0.0024963,-0.0032975,-0.0026140,-0.0109224,,,,3.1761453,-6.6433659,-21.3250542,0.0000000,0.0000000,0.0000000,0.0199960,0.0655077,0.0000000,0.0000000,0.0085309,0.0000000,0.0000000,0.0000000,0.0655077,0.0000000,0.0000000,0.0085309,0.0000000,0.0000000,0.0000000,0.0655077,0.0000000,0.0000000,0.0085309,0.0085309,0.0000000,0.0000000,0.0022071,0.0000000,0.0000000,0.0000000,0.0085309,0.0000000,0.0000000,0.0022071,0.0000000,0.0000000,0.0000000,0.0085309,0.0000000,0.0000000,0.0022071
40.0329140,1.0502001,,-0.9021400,-0.4314358,0.0005264,0.0025011,0.0028526,-0.0002923,-0.0030198,,,,3.1761453,-6.6433659,-21.3250542,0.0000000,0.0000000,0.0000000,0.0210040,0.0658660,0.0000000,0.0000000,0.0085773,0.0000000,0.0000000,0.0000000,0.0658660,0.0000000,0.0000000,0.0085773,0.0000000,0.0000000,0.0000000,0.0658660,0.0000000,0.0000000,0.0085773,0.0085773,0.0000000,0.0000000,0.0022131,0.0000000,0.0000000,0.0000000,0.0085773,0.0000000,0.0000000,0.0022131,0.0000000,0.0000000,0.0000000,0.0085773,0.0000000,0.0000000,0.0022131
40.0490140,,1.0200499,-0.9021400,-0.4314358,0.0005264,0.0025011,,,,0.0000000,0.0000000,0.0000000,3.1761453,-6.6433659,-21.3250542,0.0000000,0.0000000,0.0000000,0.1020050,0.0641666,0.0000000,0.0000000,0.0083560,0.0000000,0.0000000,0.0000000,0.0641666,0.0000000,0.0000000,0.0083560,0.0000000,0.0000000,0.0000000,0.0641666,0.0000000,0.0000000,0.0083560,0.0083560,0.0000000,0.0000000,0.0021842,0.0000000,0.0000000,0.0000000,0.0083560,0.0000000,0.0000000,0.0021842,0.0000000,0.0000000,0.0000000,0.0083560,0.0000000,0.0000000,0.0021842
40.0628010,0.9995000,,-0.9021400,-0.4314359,0.0005193,0.0024907,0.0018001,0.0064685,0.0033729,,,,3.1761453,-6.6433659,-21.3250542,0.0000000,0.0000000,0.0000000,0.0199900,0.0645007,0.0000000,0.0000000,0.0083997,0.0000000,0.0000000,0.0000000,0.0645007,0.0000000,0.0000000,0.0083997,0.0000000,0.0000000,0.0000000,0.0645007,0.0000000,0.0000000,0.0083997,0.0083997,0.0000000,0.0000000,0.0021900,0.0000000,0.0000000,0.0000000,0.0083997,0.0000000,0.0000000,0.0021900,0.0000000,0.0000000,0.0000000,0.0083997,0.0000000,0.0000000,0.0021900
40.0757100,1.1500500,,-0.9021400,-0.4314359,0.0005170,0.0024903,0.0020063,0.0049738,0.0014423,,,,3.1761453,-6.6433659,-21.3250542,0.0000000,0.0000000,0.0000000,0.0230010,0.0648871,0.0000000,0.0000000,0.0084501,0.0000000,0.0000000,0.0000000,0.0648871,0.0000000,0.0000000,0.0084501,0.0000000,0.0000000,0.0000000,0.0648871,0.0000000,0.0000000,0.0084501,0.0084501,0.0000000,0.0000000,0.0021965,0.0000000,0.0000000,0.0000000,0.0084501,0.0000000,0.0000000,0.0021965,0.0000000,0.0000000,0.0000000,0.0084501,0.0000000,0.0000000,0.0021965
40.0967520,1.0503500,,-0.9021400,-0.4314359,0.0005183,0.0024932,-0.0025292,0.0047223,0.0038950,,,,3.1761453,-6.6433659,-21.3250542,0.0000000,0.0000000,0.0000000,0.0210070,0.0652421,0.0000000,0.0000000,0.0084963,0.0000000,0.0000000,0.0000000,0.0652421,0.0000000,0.0000000,0.0084963,0.0000000,0.0000000,0.0000000,0.0652421,0.0000000,0.0000000,0.0084963,0.0084963,0.0000000,0.0000000,0.0022026,0.0000000,0.0000000,0.0000000,0.0084963,0.0000000,0.0000000,0.0022026,0.0000000,0.0000000,0.0000000,0.0084963,0.0000000,0.0000000,0.0022026
40.1169620,1.0001000,,-0.9021400,-0.4314359,0.0005263,0.0024933,-0.0008755,-0.0007669,-0.0017146,,,,3.1761453,-6.6433659,-21.3250542,0.0000000,0.0000000,0.0000000,0.0200020,0.0655820,0.0000000,0.0000000,0.0085404,0.0000000,0.0000000,0.0000000,0.0655820,0.0000000,0.0000000,0.0085404,0.0000000,0.0000000,0.0000000,0.0655820,0.0000000,0.0000000,0.0085404,0.0085404,0.0000000,0.0000000,0.0022083,0.0000000,0.0000000,0.0000000,0.0085404,0.0000000,0.0000000,0.0022083,0.0000000,0.0000000,0.0000000,0.0085404,0.0000000,0.0000000,0.0022083
40.1384010,0.9999000,,-0.9021400,-0.4314358,0.0005440,0.0025175,-0.0032225,-0.0037022,0.0001193,,,,3.1761453,-6.6433659,-21.3250542,0.0000000,0.0000000,0.0000000,0.0199980,0.0659236,0.0000000,0.0000000,0.0085847,0.0000000,0.0000000,0.0000000,0.0659236,0.0000000,0.0000000,0.0085847,0.0000000,0.0000000,0.0000000,0.0659236,0.0000000,0.0000000,0.0085847,0.0085847,0.0000000,0.0000000,0.0022140,0.0000000,0.0000000,0.0000000,0.0085847,0.0000000,0.0000000,0.0022140,0.0000000,0.0000000,0.0000000,0.0085847,0.0000000,0.0000000,0.0022140
40.1542730,,1.0200601,-0.9021400,-0.4314358,0.0005480,0.0025259,,,,0.0000000,0.0000000,0.0000000,3.1761453,-6.6433659,-21.3250542,0.0000000,0.0000000,0.0000000,0.1020060,0.0642212,0.0000000,0.0000000,0.0083630,0.0000000,0.0000000,0.0000000,0.0642212,0.0000000,0.0000000,0.0083630,0.0000000,0.0000000,0.0000000,0.0642212,0.0000000,0.0000000,0.0083630,0.0083630,0.0000000,0.0000000,0.0021851,0.0000000,0.0000000,0.0000000,0.0083630,0.0000000,0.0000000,0.0021851,0.0000000,0.0000000,0.0000000,0.0083630,0.0000000,0.0000000,0.0021851
40.1683660,0.9996500,,-0.9021399,-0.4314358,0.0005480,0.0025259,-0.0004974,-0.0049410,-0.0018935,,,,3.1761453,-6.6433659,-21.3250542,0.0000000,0.0000000,0.0000000,0.0199930,0.0645556,0.0000000,0.0000000,0.0084067,0.0000000,0.0000000,0.0000000,0.0645556,0.0000000,0.0000000,0.0084067,0.0000000,0.0000000,0.0000000,0.0645556,0.0000000,0.0000000,0.0084067,0.0084067,0.0000000,0.0000000,0.0021909,0.0000000,0.0000000,0.0000000,0.0084067,0.0000000,0.0000000,0.0021909,0.0000000,0.0000000,0.0000000,0.0084067,0.0000000,0.0000000,0.0021909
40.1817130,1.2503000,,-0.9021399,-0.4314358,0.0005276,0.0025215,0.0008347,0.0002684,0.0019829,,,,3.1761453,-6.6433659,-21.3250542,0.0000000,0.0000000,0.0000000,0.0250060,0.0649761,0.0000000,0.0000000,0.0084616,0.0000000,0.0000000,0.0000000,0.0649761,0.0000000,0.0000000,0.0084616,0.0000000,0.0000000,0.0000000,0.0649761,0.0000000,0.0000000,0.0084616,0.0084616,0.0000000,0.0000000,0.0021980,0.0000000,0.0000000,0.0000000,0.0084616,0.0000000,0.0000000,0.0021980,0.0000000,0.0000000,0.0000000,0.0084616,0.0000000,0.0000000,0.0021980
40.2027910,1.0500500,,-0.9021399,-0.4314359,0.0005138,0.0025254,0.0046669,-0.0059083,-0.0002292,,,,3.1761453,-6.6433659,-21.3250542,0.0000000,0.0000000,0.0000000,0.0210010,0.0653315,0.0000000,0.0000000,0.0085078,0.0000000,0.0000000,0.0000000,0.0653315,0.0000000,0.0000000,0.0085078,0.0000000,0.0000000,0.0000000,0.0653315,0.0000000,0.0000000,0.0085078,0.0085078,0.0000000,0.0000000,0.0022040,0.0000000,0.0000000,0.0000000,0.0085078,0.0000000,0.0000000,0.0022040,0.0000000,0.0000000,0.0000000,0.0085078,0.0000000,0.0000000,0.0022040
40.2251800,1.0497000,,-0.9021399,-0.4314359,0.0005073,0.0025259,0.0009678,0.0029663,-0.0042650,,,,3.1761453,-6.6433659,-21.3250542,0.0000000,0.0000000,0.0000000,0.0209940,0.0656887,0.0000000,0.0000000,0.0085541,0.0000000,0.0000000,0.0000000,0.0656887,0.0000000,0.0000000,0.0085541,0.0000000,0.0000000,0.0000000,0.0656887,0.0000000,0.0000000,0.0085541,0.0085541,0.0000000,0.0000000,0.0022100,0.0000000,0.0000000,0.0000000,0.0085541,0.0000000,0.0000000,0.0022100,0.0000000,0.0000000,0.0000000,0.0085541,0.0000000,0.0000000,0.0022100
40.2440140,1.0002999,,-0.9021399,-0.4314359,0.0005142,0.0025267,0.0010866,0.0027725,-0.0040856,,,,3.1761453,-6.6433659,-21.3250542,0.0000000,0.0000000,0.0000000,0.0200060,0.0660309,0.0000000,0.0000000,0.0085984,0.0000000,0.0000000,0.0000000,0.0660309,0.0000000,0.0000000,0.0085984,0.0000000,0.0000000,0.0000000,0.0660309,0.0000000,0.0000000,0.0085984,0.0085984,0.0000000,0.0000000,0.0022157,0.0000000,0.0000000,0.0000000,0.0085984,0.0000000,0.0000000,0.0022157,0.0000000,0.0000000,0.0000000,0.0085984,0.0000000,0.0000000,0.0022157
40.2590750,,0.9999000,-0.9021399,-0.4314359,0.0005142,0.0025267,,,,0.0000000,0.0000000,0.0000000,3.1761453,-6.6433659,-21.3250542,0.0000000,0.0000000,0.0000000,0.0999900,0.0643231,0.0000000,0.0000000,0.0083760,0.0000000,0.0000000,0.0000000,0.0643231,0.0000000,0.0000000,0.0083760,0.0000000,0.0000000,0.0000000,0.0643231,0.0000000,0.0000000,0.0083760,0.0083760,0.0000000,0.0000000,0.0021868,0.0000000,0.0000000,0.0000000,0.0083760,0.0000000,0.0000000,0.0021868,0.0000000,0.0000000,0.0000000,0.0083760,0.0000000,0.0000000,0.0021868
40.2728890,0.9999500,,-0.9021399,-0.4314358,0.0005311,0.0025296,0.0006806,0.0012260,-0.0042401,,,,3.1761453,-6.6433659,-21.3250542,0.0000000,0.0000000,0.0000000,0.0199990,0.0646581,0.0000000,0.0000000,0.0084198,0.0000000,0.0000000,0.0000000,0.0646581,0.0000000,0.0000000,0.0084198,0.0000000,0.0000000,0.0000000,0.0646581,0.0000000,0.0000000,0.0084198,0.0084198,0.0000000,0.0000000,0.0021925,0.0000000,0.0000000,0.0000000,0.0084198,0.0000000,0.0000000,0.0021925,0.0000000,0.0000000,0.0000000,0.0084198,0.0000000,0.0000000,0.0021925
40.2857820,1.0996500,,-0.9021400,-0.4314358,0.0005384,0.0025046,0.0026978,-0.0000813,-0.0055380,,,,3.1761453,-6.6433659,-21.3250542,0.0000000,0.0000000,0.0000000,0.0219930,0.0650285,0.0000000,0.0000000,0.0084681,0.0000000,0.0000000,0.0000000,0.0650285,0.0000000,0.0000000,0.0084681,0.0000000,0.0000000,0.0000000,0.0650285,0.0000000,0.0000000,0.0084681,0.0084681,0.0000000,0.0000000,0.0021988,0.0000000,0.0000000,0.0000000,0.0084681,0.0000000,0.0000000,0.0021988,0.0000000,0.0000000,0.0000000,0.0084681,0.0000000,0.0000000,0.0021988
40.3069900,1.0501500,,-0.9021400,-0.4314359,0.0005189,0.0024981,-0.0002456,0.0055975,-0.0044780,,,,3.1761453,-6.6433659,-21.3250542,0.0000000,0.0000000,0.0000000,0.0210030,0.0653842,0.0000000,0.0000000,0.0085143,0.0000000,0.0000000,0.0000000,0.0653842,0.0000000,0.0000000,0.0085143,0.0000000,0.0000000,0.0000000,0.0653842,0.0000000,0.0000000,0.0085143,0.0085143,0.0000000,0.0000000,0.0022048,0.0000000,0.0000000,0.0000000,0.0085143,0.0000000,0.0000000,0.0022048,0.0000000,0.0000000,0.0000000,0.0085143,0.0000000,0.0000000,0.0022048
40.3270090,1.0000501,,-0.9021400,-0.4314360,0.0004863,0.0024914,-0.0041969,-0.0001309,-0.0010183,,,,3.1761453,-6.6433659,-21.3250542,0.0000000,0.0000000,0.0000000,0.0200010,0.0657248,0.0000000,0.0000000,0.0085585,0.0000000,0.0000000,0.0000000,0.0657248,0.0000000,0.0000000,0.0085585,0.0000000,0.0000000,0.0000000,0.0657248,0.0000000,0.0000000,0.0085585,0.0085585,0.0000000,0.0000000,0.0022105,0.0000000,0.0000000,0.0000000,0.0085585,0.0000000,0.0000000,0.0022105,0.0000000,0.0000000,0.0000000,0.0085585,0.0000000,0.0000000,0.0022105
40.3481190,,0.9999800,-0.9021400,-0.4314361,0.0004494,0.0024867,,,,0.0000000,0.0000000,0.0000000,3.1761453,-6.6433659,-21.3250542,0.0000000,0.0000000,0.0000000,0.0999980,0.0640325,0.0000000,0.0000000,0.0083381,0.0000000,0.0000000,0.0000000,0.0640325,0.0000000,0.0000000,0.0083381,0.0000000,0.0000000,0.0000000,0.0640325,0.0000000,0.0000000,0.0083381,0.0083381,0.0000000,0.0000000,0.0021818,0.0000000,0.0000000,0.0000000,0.0083381,0.0000000,0.0000000,0.0021818,0.0000000,0.0000000,0.0000000,0.0083381,0.0000000,0.0000000,0.0021818
40.3617590,0.9999500,,-0.9021400,-0.4314361,0.0004494,0.0024867,-0.0040134,0.0008882,-0.0017298,,,,3.1761453,-6.6433659,-21.3250542,0.0000000,0.0000000,0.0000000,0.0199990,0.0643660,0.0000000,0.0000000,0.0083818,0.0000000,0.0000000,0.0000000,0.0643660,0.0000000,0.0000000,0.0083818,0.0000000,0.0000000,0.0000000,0.0643660,0.0000000,0.0000000,0.0083818,0.0083818,0.0000000,0.0000000,0.0021876,0.0000000,0.0000000,0.0000000,0.0083818,0.0000000,0.0000000,0.0021876,0.0000000,0.0000000,0.0000000,0.0083818,0.0000000,0.0000000,0.0021876
40.3749670,1.3998500,,-0.9021400,-0.4314361,0.0004318,0.0024947,-0.0024645,0.0048386,-0.0020856,,,,3.1761453,-6.6433659,-21.3250542,0.0000000,0.0000000,0.0000000,0.0279970,0.0648354,0.0000000,0.0000000,0.0084431,0.0000000,0.0000000,0.0000000,0.0648354,0.0000000,0.0000000,0.0084431,0.0000000,0.0000000,0.0000000,0.0648354,0.0000000,0.0000000,0.0084431,0.0084431,0.0000000,0.0000000,0.0021956,0.0000000,0.0000000,0.0000000,0.0084431,0.0000000,0.0000000,0.0021956,0.0000000,0.0000000,0.0000000,0.0084431,0.0000000,0.0000000,0.0021956
40.3949760,1.0000501,,-0.9021400,-0.4314362,0.0004205,0.0024905,0.0046577,0.0065544,0.0028634,,,,3.1761453,-6.6433659,-21.3250542,0.0000000,0.0000000,0.0000000,0.0200010,0.0651731,0.0000000,0.0000000,0.0084871,0.0000000,0.0000000,0.0000000,0.0651731,0.0000000,0.0000000,0.0084871,0.0000000,0.0000000,0.0000000,0.0651731,0.0000000,0.0000000,0.0084871,0.0084871,0.0000000,0.0000000,0.0022013,0.0000000,0.0000000,0.0000000,0.0084871,0.0000000,0.0000000,0.0022013,0.0000000,0.0000000,0.0000000,0.0084871,0.0000000,0.0000000,0.0022013
40.4149270,1.0005001,,-0.9021400,-0.4314362,0.0004067,0.0024599,-0.0000668,0.0090603,0.0048497,,,,3.1761453,-6.6433659,-21.3250542,0.0000000,0.0000000,0.0000000,0.0200100,0.0655128,0.0000000,0.0000000,0.0085312,0.0000000,0.0000000,0.0000000,0.0655128,0.0000000,0.0000000,0.0085312,0.0000000,0.0000000,0.0000000,0.0655128,0.0000000,0.0000000,0.0085312,0.0085312,0.0000000,0.0000000,0.0022070,0.0000000,0.0000000,0.0000000,0.0085312,0.0000000,0.0000000,0.0022070,0.0000000,0.0000000,0.0000000,0.0085312,0.0000000,0.0000000,0.0022070
40.4348600,0.9998500,,-0.9021401,-0.4314363,0.0003833,0.0024269,-0.0007353,0.0107557,0.0024248,,,,3.1761453,-6.6433659,-21.3250542,0.0000000,0.0000000,0.0000000,0.0199970,0.0658540,0.0000000,0.0000000,0.0085754,0.0000000,0.0000000,0.0000000,0.0658540,0.0000000,0.0000000,0.0085754,0.0000000,0.0000000,0.0000000,0.0658540,0.0000000,0.0000000,0.0085754,0.0085754,0.0000000,0.0000000,0.0022127,0.0000000,0.0000000,0.0000000,0.0085754,0.0000000,0.0000000,0.0022127,0.0000000,0.0000000,0.0000000,0.0085754,0.0000000,0.0000000,0.0022127
40.4507410,,1.0001199,-0.9021401,-0.4314363,0.0003833,0.0024269,,,,0.0000000,0.0000000,0.0000000,3.1761453,-6.6433659,-21.3250542,0.0000000,0.0000000,0.0000000,0.1000120,0.0641551,0.0000000,0.0000000,0.0083542,0.0000000,0.0000000,0.0000000,0.0641551,0.0000000,0.0000000,0.0083542,0.0000000,0.0000000,0.0000000,0.0641551,0.0000000,0.0000000,0.0083542,0.0083542,0.0000000,0.0000000,0.0021839,0.0000000,0.0000000,0.0000000,0.0083542,0.0000000,0.0000000,0.0021839,0.0000000,0.0000000,0.0000000,0.0083542,0.0000000,0.0000000,0.0021839
40.4631400,1.0002000,,-0.9021401,-0.4314363,0.0003814,0.0024028,-0.0022674,0.0030509,0.0024331,,,,3.1761453,-6.6433659,-21.3250542,0.0000000,0.0000000,0.0000000,0.0200040,0.0644894,0.0000000,0.0000000,0.0083979,0.0000000,0.0000000,0.0000000,0.0644894,0.0000000,0.0000000,0.0083979,0.0000000,0.0000000,0.0000000,0.0644894,0.0000000,0.0000000,0.0083979,0.0083979,0.0000000,0.0000000,0.0021897,0.0000000,0.0000000,0.0000000,0.0083979,0.0000000,0.0000000,0.0021897,0.0000000,0.0000000,0.0000000,0.0083979,0.0000000,0.0000000,0.0021897
40.4779370,1.1494001,,-0.9021401,-0.4314363,0.0003731,0.0023849,-0.0025528,-0.0010609,-0.0007366,,,,3.1761453,-6.6433659,-21.3250542,0.0000000,0.0000000,0.0000000,0.0229880,0.0648755,0.0000000,0.0000000,0.0084483,0.0000000,0.0000000,0.0000000,0.0648755,0.0000000,0.0000000,0.0084483,0.0000000,0.0000000,0.0000000,0.0648755,0.0000000,0.0000000,0.0084483,0.0084483,0.0000000,0.0000000,0.0021962,0.0000000,0.0000000,0.0000000,0.0084483,0.0000000,0.0000000,0.0021962,0.0000000,0.0000000,0.0000000,0.0084483,0.0000000,0.0000000,0.0021962
40.5001810,1.0501001,,-0.9021402,-0.4314364,0.0003606,0.0023575,0.0014549,0.0002630,0.0003641,,,,3.1761453,-6.6433659,-21.3250542,0.0000000,0.0000000,0.0000000,0.0210020,0.0652303,0.0000000,0.0000000,0.0084945,0.0000000,0.0000000,0.0000000,0.0652303,0.0000000,0.0000000,0.0084945,0.0000000,0.0000000,0.0000000,0.0652303,0.0000000,0.0000000,0.0084945,0.0084945,0.0000000,0.0000000,0.0022022,0.0000000,0.0000000,0.0000000,0.0084945,0.0000000,0.0000000,0.0022022,0.0000000,0.0000000,0.0000000,0.0084945,0.0000000,0.0000000,0.0022022
40.5189310,1.0002999,,-0.9021402,-0.4314364,0.0003491,0.0023495,0.0024670,0.0026339,0.0048207,,,,3.1761453,-6.6433659,-21.3250542,0.0000000,0.0000000,0.0000000,0.0200060,0.0655702,0.0000000,0.0000000,0.0085386,0.0000000,0.0000000,0.0000000,0.0655702,0.0000000,0.0000000,0.0085386,0.0000000,0.0000000,0.0000000,0.0655702,0.0000000,0.0000000,0.0085386,0.0085386,0.0000000,0.0000000,0.0022080,0.0000000,0.0000000,0.0000000,0.0085386,0.0000000,0.0000000,0.0022080,0.0000000,0.0000000,0.0000000,0.0085386,0.0000000,0.0000000,0.0022080
40.5386740,0.9996500,,-0.9021402,-0.4314365,0.0003277,0.0023498,0.0034308,0.0025987,0.0048518,,,,3.1761453,-6.6433659,-21.3250542,0.0000000,0.0000000,0.0000000,0.0199930,0.0659117,0.0000000,0.0000000,0.0085828,0.0000000,0.0000000,0.0000000,0.0659117,0.0000000,0.0000000,0.0085828,0.0000000,0.0000000,0.0000000,0.0659117,0.0000000,0.0000000,0.0085828,0.0085828,0.0000000,0.0000000,0.0022137,0.0000000,0.0000000,0.0000000,0.0085828,0.0000000,0.0000000,0.0022137,0.0000000,0.0000000,0.0000000,0.0085828,0.0000000,0.0000000,0.0022137
40.5540400,,0.9999600,-0.9021402,-0.4314365,0.0003277,0.0023498,,,,0.0000000,0.0000000,0.0000000,3.1761453,-6.6433659,-21.3250542,0.0000000,0.0000000,0.0000000,0.0999960,0.0642099,0.0000000,0.0000000,0.0083612,0.0000000,0.0000000,0.0000000,0.0642099,0.0000000,0.0000000,0.0083612,0.0000000,0.0000000,0.0000000,0.0642099,0.0000000,0.0000000,0.0083612,0.0083612,0.0000000,0.0000000,0.0021848,0.0000000,0.0000000,0.0000000,0.0083612,0.0000000,0.0000000,0.0021848,0.0000000,0.0000000,0.0000000,0.0083612,0.0000000,0.0000000,0.0021848
40.5677120,1.0000501,,-0.9021402,-0.4314365,0.0003162,0.0023510,-0.0012143,0.0001397,-0.0024569,,,,3.1761453,-6.6433659,-21.3250542,0.0000000,0.0000000,0.0000000,0.0200010,0.0645443,0.0000000,0.0000000,0.0084050,0.0000000,0.0000000,0.0000000,0.0645443,0.0000000,0.0000000,0.0084050,0.0000000,0.0000000,0.0000000,0.0645443,0.0000000,0.0000000,0.0084050,0.0084050,0.0000000,0.0000000,0.0021906,0.0000000,0.0000000,0.0000000,0.0084050,0.0000000,0.0000000,0.0021906,0.0000000,0.0000000,0.0000000,0.0084050,0.0000000,0.0000000,0.0021906
40.5807790,1.0999000,,-0.9021402,-0.4314364,0.0003387,0.0023563,-0.0064208,-0.0017917,-0.0044023,,,,3.1761453,-6.6433659,-21.3250542,0.0000000,0.0000000,0.0000000,0.0219980,0.0649141,0.0000000,0.0000000,0.0084532,0.0000000,0.0000000,0.0000000,0.0649141,0.0000000,0.0000000,0.0084532,0.0000000,0.0000000,0.0000000,0.0649141,0.0000000,0.0000000,0.0084532,0.0084532,0.0000000,0.0000000,0.0021968,0.0000000,0.0000000,0.0000000,0.0084532,0.0000000,0.0000000,0.0021968,0.0000000,0.0000000,0.0000000,0.0084532,0.0000000,0.0000000,0.0021968
40.6019600,1.0501001,,-0.9021401,-0.4314364,0.0003349,0.0023847,-0.0005325,-0.0022310,-0.0034218,,,,3.1761453,-6.6433659,-21.3250542,0.0000000,0.0000000,0.0000000,0.0210020,0.0652692,0.0000000,0.0000000,0.0084994,0.0000000,0.0000000,0.0000000,0.0652692,0.0000000,0.0000000,0.0084994,0.0000000,0.0000000,0.0000000,0.0652692,0.0000000,0.0000000,0.0084994,0.0084994,0.0000000,0.0000000,0.0022029,0.0000000,0.0000000,0.0000000,0.0084994,0.0000000,0.0000000,0.0022029,0.0000000,0.0000000,0.0000000,0.0084994,0.0000000,0.0000000,0.0022029
40.6231890,1.0000000,,-0.9021400,-0.4314364,0.0003188,0.0024338,-0.0005714,-0.0031373,0.0036602,,,,3.1761453,-6.6433659,-21.3250542,0.0000000,0.0000000,0.0000000,0.0200000,0.0656092,0.0000000,0.0000000,0.0085436,0.0000000,0.0000000,0.0000000,0.0656092,0.0000000,0.0000000,0.0085436,0.0000000,0.0000000,0.0000000,0.0656092,0.0000000,0.0000000,0.0085436,0.0085436,0.0000000,0.0000000,0.0022086,0.0000000,0.0000000,0.0000000,0.0085436,0.0000000,0.0000000,0.0022086,0.0000000,0.0000000,0.0000000,0.0085436,0.0000000,0.0000000,0.0022086
40.6420270,1.0000000,,-0.9021400,-0.4314364,0.0003243,0.0024482,-0.0027576,-0.0011567,-0.0010996,,,,3.1761453,-6.6433659,-21.3250542,0.0000000,0.0000000,0.0000000,0.0200000,0.0659509,0.0000000,0.0000000,0.0085878,0.0000000,0.0000000,0.0000000,0.0659509,0.0000000,0.0000000,0.0085878,0.0000000,0.0000000,0.0000000,0.0659509,0.0000000,0.0000000,0.0085878,0.0085878,0.0000000,0.0000000,0.0022143,0.0000000,0.0000000,0.0000000,0.0085878,0.0000000,0.0000000,0.0022143,0.0000000,0.0000000,0.0000000,0.0085878,0.0000000,0.0000000,0.0022143
40.6577880,,1.0199400,-0.9021400,-0.4314364,0.0003243,0.0024828,,,,0.0000000,0.0000000,0.0000000,3.1761453,-6.6433659,-21.3250542,0.0000000,0.0000000,0.0000000,0.1019940,0.0642472,0.0000000,0.0000000,0.0083659,0.0000000,0.0000000,0.0000000,0.0642472,0.0000000,0.0000000,0.0083659,0.0000000,0.0000000,0.0000000,0.0642472,0.0000000,0.0000000,0.0083659,0.0083659,0.0000000,0.0000000,0.0021854,0.0000000,0.0000000,0.0000000,0.0083659,0.0000000,0.0000000,0.0021854,0.0000000,0.0000000,0.0000000,0.0083659,0.0000000,0.0000000,0.0021854
40.6715600,1.0002000,,-0.9021399,-0.4314364,0.0003369,0.0024828,-0.0048349,0.0016037,-0.0015264,,,,3.1761453,-6.6433659,-21.3250542,0.0000000,0.0000000,0.0000000,0.0200040,0.0645819,0.0000000,0.0000000,0.0084097,0.0000000,0.0000000,0.0000000,0.0645819,0.0000000,0.0000000,0.0084097,0.0000000,0.0000000,0.0000000,0.0645819,0.0000000,0.0000000,0.0084097,0.0084097,0.0000000,0.0000000,0.0021911,0.0000000,0.0000000,0.0000000,0.0084097,0.0000000,0.0000000,0.0021911,0.0000000,0.0000000,0.0000000,0.0084097,0.0000000,0.0000000,0.0021911
40.6847510,1.1497000,,-0.9021398,-0.4314363,0.0003661,0.0025131,0.0034343,0.0020531,0.0024106,,,,3.1761453,-6.6433659,-21.3250542,0.0000000,0.0000000,0.0000000,0.0229940,0.0649686,0.0000000,0.0000000,0.0084601,0.0000000,0.0000000,0.0000000,0.0649686,0.0000000,0.0000000,0.0084601,0.0000000,0.0000000,0.0000000,0.0649686,0.0000000,0.0000000,0.0084601,0.0084602,0.0000000,0.0000000,0.0021977,0.0000000,0.0000000,0.0000000,0.0084602,0.0000000,0.0000000,0.0021977,0.0000000,0.0000000,0.0000000,0.0084602,0.0000000,0.0000000,0.0021977
40.7072550,1.0501001,,-0.9021398,-0.4314362,0.0003903,0.0025408,0.0068441,-0.0011097,0.0038909,,,,3.1761453,-6.6433659,-21.3250542,0.0000000,0.0000000,0.0000000,0.0210020,0.0653240,0.0000000,0.0000000,0.0085064,0.0000000,0.0000000,0.0000000,0.0653240,0.0000000,0.0000000,0.0085064,0.0000000,0.0000000,0.0000000,0.0653240,0.0000000,0.0000000,0.0085064,0.0085064,0.0000000,0.0000000,0.0022037,0.0000000,0.0000000,0.0000000,0.0085064,0.0000000,0.0000000,0.0022037,0.0000000,0.0000000,0.0000000,0.0085064,0.0000000,0.0000000,0.0022037
40.7258050,0.9999000,,-0.9021398,-0.4314361,0.0004034,0.0025547,0.0085566,-0.0004938,-0.0022050,,,,3.1761453,-6.6433659,-21.3250542,0.0000000,0.0000000,0.0000000,0.0199980,0.0656642,0.0000000,0.0000000,0.0085505,0.0000000,0.0000000,0.0000000,0.0656642,0.0000000,0.0000000,0.0085505,0.0000000,0.0000000,0.0000000,0.0656642,0.0000000,0.0000000,0.0085505,0.0085505,0.0000000,0.0000000,0.0022094,0.0000000,0.0000000,0.0000000,0.0085505,0.0000000,0.0000000,0.0022094,0.0000000,0.0000000,0.0000000,0.0085505,0.0000000,0.0000000,0.0022094
40.7459240,1.0001000,,-0.9021398,-0.4314361,0.0004223,0.0025469,0.0018751,0.0056582,-0.0015908,,,,3.1761453,-6.6433659,-21.3250542,0.0000000,0.0000000,0.0000000,0.0200020,0.0660063,0.0000000,0.0000000,0.0085947,0.0000000,0.0000000,0.0000000,0.0660063,0.0000000,0.0000000,0.0085947,0.0000000,0.0000000,0.0000000,0.0660063,0.0000000,0.0000000,0.0085947,0.0085947,0.0000000,0.0000000,0.0022152,0.0000000,0.0000000,0.0000000,0.0085947,0.0000000,0.0000000,0.0022152,0.0000000,0.0000000,0.0000000,0.0085947,0.0000000,0.0000000,0.0022152
40.7617750,,0.9999900,-0.9021398,-0.4314361,0.0004223,0.0025469,,,,0.0000000,0.0000000,0.0000000,3.1761453,-6.6433659,-21.3250542,0.0000000,0.0000000,0.0000000,0.0999990,0.0642997,0.0000000,0.0000000,0.0083725,0.0000000,0.0000000,0.0000000,0.0642997,0.0000000,0.0000000,0.0083725,0.0000000,0.0000000,0.0000000,0.0642997,0.0000000,0.0000000,0.0083725,0.0083725,0.0000000,0.0000000,0.0021862,0.0000000,0.0000000,0.0000000,0.0083725,0.0000000,0.0000000,0.0021862,0.0000000,0.0000000,0.0000000,0.0083725,0.0000000,0.0000000,0.0021862
40.7757980,1.0000000,,-0.9021398,-0.4314361,0.0004457,0.0025346,0.0019828,0.0021348,0.0004253,,,,3.1761453,-6.6433659,-21.3250542,0.0000000,0.0000000,0.0000000,0.0200000,0.0646346,0.0000000,0.0000000,0.0084163,0.0000000,0.0000000,0.0000000,0.0646346,0.0000000,0.0000000,0.0084163,0.0000000,0.0000000,0.0000000,0.0646346,0.0000000,0.0000000,0.0084163,0.0084163,0.0000000,0.0000000,0.0021920,0.0000000,0.0000000,0.0000000,0.0084163,0.0000000,0.0000000,0.0021920,0.0000000,0.0000000,0.0000000,0.0084163,0.0000000,0.0000000,0.0021920
40.7885740,1.1499000,,-0.9021399,-0.4314360,0.0004719,0.0025094,-0.0067067,-0.0008704,-0.0014963,,,,3.1761453,-6.6433659,-21.3250542,0.0000000,0.0000000,0.0000000,0.0229980,0.0650217,0.0000000,0.0000000,0.0084668,0.0000000,0.0000000,0.0000000,0.0650217,0.0000000,0.0000000,0.0084668,0.0000000,0.0000000,0.0000000,0.0650217,0.0000000,0.0000000,0.0084668,0.0084668,0.0000000,0.0000000,0.0021985,0.0000000,0.0000000,0.0000000,0.0084668,0.0000000,0.0000000,0.0021985,0.0000000,0.0000000,0.0000000,0.0084668,0.0000000,0.0000000,0.0021985
40.8098870,1.0504500,,-0.9021399,-0.4314360,0.0004845,0.0025009,-0.0054438,0.0020291,-0.0002599,,,,3.1761453,-6.6433659,-21.3250542,0.0000000,0.0000000,0.0000000,0.0210090,0.0653775,0.0000000,0.0000000,0.0085130,0.0000000,0.0000000,0.0000000,0.0653775,0.0000000,0.0000000,0.0085130,0.0000000,0.0000000,0.0000000,0.0653775,0.0000000,0.0000000,0.0085130,0.0085130,0.0000000,0.0000000,0.0022045,0.0000000,0.0000000,0.0000000,0.0085130,0.0000000,0.0000000,0.0022045,0.0000000,0.0000000,0.0000000,0.0085130,0.0000000,0.0000000,0.0022045
40.8299030,0.9996500,,-0.9021400,-0.4314360,0.0004879,0.0024902,0.0003146,0.0046843,0.0008466,,,,3.1761453,-6.6433659,-21.3250542,0.0000000,0.0000000,0.0000000,0.0199930,0.0657179,0.0000000,0.0000000,0.0085572,0.0000000,0.0000000,0.0000000,0.0657179,0.0000000,0.0000000,0.0085572,0.0000000,0.0000000,0.0000000,0.0657179,0.0000000,0.0000000,0.0085572,0.0085572,0.0000000,0.0000000,0.0022103,0.0000000,0.0000000,0.0000000,0.0085572,0.0000000,0.0000000,0.0022103,0.0000000,0.0000000,0.0000000,0.0085572,0.0000000,0.0000000,0.0022103
40.8515040,,1.0000000,-0.9021400,-0.4314360,0.0004983,0.0024970,,,,0.0000000,0.0000000,0.0000000,3.1761453,-6.6433659,-21.3250542,0.0000000,0.0000000,0.0000000,0.1000000,0.0640260,0.0000000,0.0000000,0.0083369,0.0000000,0.0000000,0.0000000,0.0640260,0.0000000,0.0000000,0.0083369,0.0000000,0.0000000,0.0000000,0.0640260,0.0000000,0.0000000,0.0083369,0.0083369,0.0000000,0.0000000,0.0021816,0.0000000,0.0000000,0.0000000,0.0083369,0.0000000,0.0000000,0.0021816,0.0000000,0.0000000,0.0000000,0.0083369,0.0000000,0.0000000,0.0021816
40.8647860,0.9999000,,-0.9021400,-0.4314360,0.0004983,0.0024970,-0.0031462,-0.0000611,-0.0020181,,,,3.1761453,-6.6433659,-21.3250542,0.0000000,0.0000000,0.0000000,0.0199980,0.0643594,0.0000000,0.0000000,0.0083805,0.0000000,0.0000000,0.0000000,0.0643594,0.0000000,0.0000000,0.0083805,0.0000000,0.0000000,0.0000000,0.0643594,0.0000000,0.0000000,0.0083805,0.0083806,0.0000000,0.0000000,0.0021873,0.0000000,0.0000000,0.0000000,0.0083806,0.0000000,0.0000000,0.0021873,0.0000000,0.0000000,0.0000000,0.0083806,0.0000000,0.0000000,0.0021873
40.8779240,1.4000001,,-0.9021399,-0.4314359,0.0004988,0.0025052,-0.0041595,0.0007476,-0.0036946,,,,3.1761453,-6.6433659,-21.3250542,0.0000000,0.0000000,0.0000000,0.0280000,0.0648287,0.0000000,0.0000000,0.0084419,0.0000000,0.0000000,0.0000000,0.0648287,0.0000000,0.0000000,0.0084419,0.0000000,0.0000000,0.0000000,0.0648287,0.0000000,0.0000000,0.0084419,0.0084419,0.0000000,0.0000000,0.0021953,0.0000000,0.0000000,0.0000000,0.0084419,0.0000000,0.0000000,0.0021953,0.0000000,0.0000000,0.0000000,0.0084419,0.0000000,0.0000000,0.0021953
40.8993220,1.0003500,,-0.9021399,-0.4314360,0.0004657,0.0025223,0.0025895,0.0028534,0.0035238,,,,3.1761453,-6.6433659,-21.3250542,0.0000000,0.0000000,0.0000000,0.0200070,0.0651665,0.0000000,0.0000000,0.0084859,0.0000000,0.0000000,0.0000000,0.0651665,0.0000000,0.0000000,0.0084859,0.0000000,0.0000000,0.0000000,0.0651665,0.0000000,0.0000000,0.0084859,0.0084859,0.0000000,0.0000000,0.0022010,0.0000000,0.0000000,0.0000000,0.0084859,0.0000000,0.0000000,0.0022010,0.0000000,0.0000000,0.0000000,0.0084859,0.0000000,0.0000000,0.0022010
40.9179870,1.0000501,,-0.9021399,-0.4314360,0.0004565,0.0025306,-0.0025657,0.0036697,0.0037150,,,,3.1761453,-6.6433659,-21.3250542,0.0000000,0.0000000,0.0000000,0.0200010,0.0655060,0.0000000,0.0000000,0.0085299,0.0000000,0.0000000,0.0000000,0.0655060,0.0000000,0.0000000,0.0085299,0.0000000,0.0000000,0.0000000,0.0655060,0.0000000,0.0000000,0.0085299,0.0085299,0.0000000,0.0000000,0.0022068,0.0000000,0.0000000,0.0000000,0.0085299,0.0000000,0.0000000,0.0022068,0.0000000,0.0000000,0.0000000,0.0085299,0.0000000,0.0000000,0.0022068
40.9394220,1.0000501,,-0.9021399,-0.4314361,0.0004429,0.0025008,-0.0075695,0.0047417,0.0033224,,,,3.1761453,-6.6433659,-21.3250542,0.0000000,0.0000000,0.0000000,0.0200010,0.0658472,0.0000000,0.0000000,0.0085741,0.0000000,0.0000000,0.0000000,0.0658472,0.0000000,0.0000000,0.0085741,0.0000000,0.0000000,0.0000000,0.0658472,0.0000000,0.0000000,0.0085741,0.0085741,0.0000000,0.0000000,0.0022125,0.0000000,0.0000000,0.0000000,0.0085741,0.0000000,0.0000000,0.0022125,0.0000000,0.0000000,0.0000000,0.0085741,0.0000000,0.0000000,0.0022125
40.9553930,,1.0000100,-0.9021399,-0.4314361,0.0004318,0.0024820,,,,0.0000000,0.0000000,0.0000000,3.1761453,-6.6433659,-21.3250542,0.0000000,0.0000000,0.0000000,0.1000010,0.0641487,0.0000000,0.0000000,0.0083530,0.0000000,0.0000000,0.0000000,0.0641487,0.0000000,0.0000000,0.0083530,0.0000000,0.0000000,0.0000000,0.0641487,0.0000000,0.0000000,0.0083530,0.0083530,0.0000000,0.0000000,0.0021837,0.0000000,0.0000000,0.0000000,0.0083530,0.0000000,0.0000000,0.0021837,0.0000000,0.0000000,0.0000000,0.0083530,0.0000000,0.0000000,0.0021837
40.9693510,0.9999500,,-0.9021400,-0.4314361,0.0004318,0.0024820,-0.0047079,0.0038052,0.0087413,,,,3.1761453,-6.6433659,-21.3250542,0.0000000,0.0000000,0.0000000,0.0199990,0.0644828,0.0000000,0.0000000,0.0083967,0.0000000,0.0000000,0.0000000,0.0644828,0.0000000,0.0000000,0.0083967,0.0000000,0.0000000,0.0000000,0.0644828,0.0000000,0.0000000,0.0083967,0.0083967,0.0000000,0.0000000,0.0021894,0.0000000,0.0000000,0.0000000,0.0083967,0.0000000,0.0000000,0.0021894,0.0000000,0.0000000,0.0000000,0.0083967,0.0000000,0.0000000,0.0021894
40.9841900,1.2497500,,-0.9021400,-0.4314362,0.0004320,0.0024689,0.0025975,-0.0000887,-0.0002680,,,,3.1761453,-6.6433659,-21.3250542,0.0000000,0.0000000,0.0000000,0.0249950,0.0649025,0.0000000,0.0000000,0.0084515,0.0000000,0.0000000,0.0000000,0.0649025,0.0000000,0.0000000,0.0084515,0.0000000,0.0000000,0.0000000,0.0649025,0.0000000,0.0000000,0.0084515,0.0084515,0.0000000,0.0000000,0.0021966,0.0000000,0.0000000,0.0000000,0.0084515,0.0000000,0.0000000,0.0021966,0.0000000,0.0000000,0.0000000,0.0084515,0.0000000,0.0000000,0.0021966
41.0036520,1.0500500,,-0.9021401,-0.4314362,0.0004427,0.0024400,0.0001849,0.0013518,0.0030398,,,,3.1761453,-6.6433659,-21.3250542,0.0000000,0.0000000,0.0000000,0.0210010,0.0652575,0.0000000,0.0000000,0.0084977,0.0000000,0.0000000,0.0000000,0.0652575,0.0000000,0.0000000,0.0084977,0.0000000,0.0000000,0.0000000,0.0652575,0.0000000,0.0000000,0.0084977,0.0084977,0.0000000,0.0000000,0.0022026,0.0000000,0.0000000,0.0000000,0.0084977,0.0000000,0.0000000,0.0022026,0.0000000,0.0000000,0.0000000,0.0084977,0.0000000,0.0000000,0.0022026
41.0249820,1.0498999,,-0.9021401,-0.4314362,0.0004495,0.0024317,0.0009240,-0.0020630,0.0076234,,,,3.1761453,-6.6433659,-21.3250542,0.0000000,0.0000000,0.0000000,0.0209980,0.0656144,0.0000000,0.0000000,0.0085440,0.0000000,0.0000000,0.0000000,0.0656144,0.0000000,0.0000000,0.0085440,0.0000000,0.0000000,0.0000000,0.0656144,0.0000000,0.0000000,0.0085440,0.0085440,0.0000000,0.0000000,0.0022086,0.0000000,0.0000000,0.0000000,0.0085440,0.0000000,0.0000000,0.0022086,0.0000000,0.0000000,0.0000000,0.0085440,0.0000000,0.0000000,0.0022086
41.0449990,1.0003500,,-0.9021400,-0.4314362,0.0004477,0.0024406,-0.0031162,-0.0005814,0.0052766,,,,3.1761453,-6.6433659,-21.3250542,0.0000000,0.0000000,0.0000000,0.0200070,0.0659563,0.0000000,0.0000000,0.0085882,0.0000000,0.0000000,0.0000000,0.0659563,0.0000000,0.0000000,0.0085882,0.0000000,0.0000000,0.0000000,0.0659563,0.0000000,0.0000000,0.0085882,0.0085882,0.0000000,0.0000000,0.0022143,0.0000000,0.0000000,0.0000000,0.0085882,0.0000000,0.0000000,0.0022143,0.0000000,0.0000000,0.0000000,0.0085882,0.0000000,0.0000000,0.0022143
41.0600440,,1.0200700,-0.9021400,-0.4314362,0.0004477,0.0024406,,,,0.0000000,0.0000000,0.0000000,3.1761453,-6.6433659,-21.3250542,0.0000000,0.0000000,0.0000000,0.1020070,0.0642522,0.0000000,0.0000000,0.0083663,0.0000000,0.0000000,0.0000000,0.0642522,0.0000000,0.0000000,0.0083663,0.0000000,0.0000000,0.0000000,0.0642522,0.0000000,0.0000000,0.0083663,0.0083664,0.0000000,0.0000000,0.0021854,0.0000000,0.0000000,0.0000000,0.0083664,0.0000000,0.0000000,0.0021854,0.0000000,0.0000000,0.0000000,0.0083664,0.0000000,0.0000000,0.0021854
41.0738910,1.0000000,,-0.9021400,-0.4314361,0.0004624,0.0024398,0.0031950,0.0070030,0.0036148,,,,3.1761453,-6.6433659,-21.3250542,0.0000000,0.0000000,0.0000000,0.0200000,0.0645869,0.0000000,0.0000000,0.0084101,0.0000000,0.0000000,0.0000000,0.0645869,0.0000000,0.0000000,0.0084101,0.0000000,0.0000000,0.0000000,0.0645869,0.0000000,0.0000000,0.0084101,0.0084101,0.0000000,0.0000000,0.0021911,0.0000000,0.0000000,0.0000000,0.0084101,0.0000000,0.0000000,0.0021911,0.0000000,0.0000000,0.0000000,0.0084101,0.0000000,0.0000000,0.0021911
41.0867640,1.0995500,,-0.9021400,-0.4314361,0.0004648,0.0024529,0.0053512,0.0020290,0.0027840,,,,3.1761453,-6.6433659,-21.3250542,0.0000000,0.0000000,0.0000000,0.0219910,0.0649568,0.0000000,0.0000000,0.0084584,0.0000000,0.0000000,0.0000000,0.0649568,0.0000000,0.0000000,0.0084584,0.0000000,0.0000000,0.0000000,0.0649568,0.0000000,0.0000000,0.0084584,0.0084584,0.0000000,0.0000000,0.0021974,0.0000000,0.0000000,0.0000000,0.0084584,0.0000000,0.0000000,0.0021974,0.0000000,0.0000000,0.0000000,0.0084584,0.0000000,0.0000000,0.0021974
41.1079620,1.0501500,,-0.9021400,-0.4314361,0.0004634,0.0024725,0.0007988,0.0005339,0.0038334,,,,3.1761453,-6.6433659,-21.3250542,0.0000000,0.0000000,0.0000000,0.0210030,0.0653121,0.0000000,0.0000000,0.0085046,0.0000000,0.0000000,0.0000000,0.0653121,0.0000000,0.0000000,0.0085046,0.0000000,0.0000000,0.0000000,0.0653121,0.0000000,0.0000000,0.0085046,0.0085046,0.0000000,0.0000000,0.0022034,0.0000000,0.0000000,0.0000000,0.0085046,0.0000000,0.0000000,0.0022034,0.0000000,0.0000000,0.0000000,0.0085046,0.0000000,0.0000000,0.0022034
41.1279840,1.0001501,,-0.9021400,-0.4314361,0.0004678,0.0024727,-0.0007298,0.0009994,0.0009401,,,,3.1761453,-6.6433659,-21.3250542,0.0000000,0.0000000,0.0000000,0.0200030,0.0656523,0.0000000,0.0000000,0.0085487,0.0000000,0.0000000,0.0000000,0.0656523,0.0000000,0.0000000,0.0085487,0.0000000,0.0000000,0.0000000,0.0656523,0.0000000,0.0000000,0.0085487,0.0085487,0.0000000,0.0000000,0.0022091,0.0000000,0.0000000,0.0000000,0.0085487,0.0000000,0.0000000,0.0022091,0.0000000,0.0000000,0.0000000,0.0085487,0.0000000,0.0000000,0.0022091
41.1480310,1.0000000,,-0.9021400,-0.4314361,0.0004849,0.0024682,0.0026945,-0.0009652,0.0046205,,,,3.1761453,-6.6433659,-21.3250542,0.0000000,0.0000000,0.0000000,0.0200000,0.0659943,0.0000000,0.0000000,0.0085929,0.0000000,0.0000000,0.0000000,0.0659943,0.0000000,0.0000000,0.0085929,0.0000000,0.0000000,0.0000000,0.0659943,0.0000000,0.0000000,0.0085929,0.0085929,0.0000000,0.0000000,0.0022149,0.0000000,0.0000000,0.0000000,0.0085929,0.0000000,0.0000000,0.0022149,0.0000000,0.0000000,0.0000000,0.0085929,0.0000000,0.0000000,0.0022149
41.1639100,,0.9999700,-0.9021400,-0.4314361,0.0004849,0.0024456,,,,0.0000000,0.0000000,0.0000000,3.1761453,-6.6433659,-21.3250542,0.0000000,0.0000000,0.0000000,0.0999970,0.0642883,0.0000000,0.0000000,0.0083708,0.0000000,0.0000000,0.0000000,0.0642883,0.0000000,0.0000000,0.0083708,0.0000000,0.0000000,0.0000000,0.0642883,0.0000000,0.0000000,0.0083708,0.0083708,0.0000000,0.0000000,0.0021859,0.0000000,0.0000000,0.0000000,0.0083708,0.0000000,0.0000000,0.0021859,0.0000000,0.0000000,0.0000000,0.0083708,0.0000000,0.0000000,0.0021859
41.1777410,0.9999000,,-0.9021401,-0.4314361,0.0004955,0.0024456,-0.0033906,0.0036373,-0.0018402,,,,3.1761453,-6.6433659,-21.3250542,0.0000000,0.0000000,0.0000000,0.0199980,0.0646231,0.0000000,0.0000000,0.0084146,0.0000000,0.0000000,0.0000000,0.0646231,0.0000000,0.0000000,0.0084146,0.0000000,0.0000000,0.0000000,0.0646231,0.0000000,0.0000000,0.0084146,0.0084146,0.0000000,0.0000000,0.0021917,0.0000000,0.0000000,0.0000000,0.0084146,0.0000000,0.0000000,0.0021917,0.0000000,0.0000000,0.0000000,0.0084146,0.0000000,0.0000000,0.0021917
41.1908310,1.1497999,,-0.9021401,-0.4314360,0.0005208,0.0024464,-0.0042054,0.0020704,-0.0001877,,,,3.1761453,-6.6433659,-21.3250542,0.0000000,0.0000000,0.0000000,0.0229960,0.0650101,0.0000000,0.0000000,0.0084651,0.0000000,0.0000000,0.0000000,0.0650101,0.0000000,0.0000000,0.0084651,0.0000000,0.0000000,0.0000000,0.0650101,0.0000000,0.0000000,0.0084651,0.0084651,0.0000000,0.0000000,0.0021982,0.0000000,0.0000000,0.0000000,0.0084651,0.0000000,0.0000000,0.0021982,0.0000000,0.0000000,0.0000000,0.0084651,0.0000000,0.0000000,0.0021982
41.2118750,1.0504000,,-0.9021400,-0.4314360,0.0005274,0.0024552,0.0051300,0.0025153,0.0001503,,,,3.1761453,-6.6433659,-21.3250542,0.0000000,0.0000000,0.0000000,0.0210080,0.0653658,0.0000000,0.0000000,0.0085113,0.0000000,0.0000000,0.0000000,0.0653658,0.0000000,0.0000000,0.0085113,0.0000000,0.0000000,0.0000000,0.0653658,0.0000000,0.0000000,0.0085113,0.0085113,0.0000000,0.0000000,0.0022043,0.0000000,0.0000000,0.0000000,0.0085113,0.0000000,0.0000000,0.0022043,0.0000000,0.0000000,0.0000000,0.0085113,0.0000000,0.0000000,0.0022043
41.2318140,0.9997000,,-0.9021401,-0.4314360,0.0005293,0.0024457,0.0029770,0.0041797,0.0061787,,,,3.1761453,-6.6433659,-21.3250542,0.0000000,0.0000000,0.0000000,0.0199940,0.0657061,0.0000000,0.0000000,0.0085554,0.0000000,0.0000000,0.0000000,0.0657061,0.0000000,0.0000000,0.0085554,0.0000000,0.0000000,0.0000000,0.0657061,0.0000000,0.0000000,0.0085554,0.0085554,0.0000000,0.0000000,0.0022100,0.0000000,0.0000000,0.0000000,0.0085554,0.0000000,0.0000000,0.0022100,0.0000000,0.0000000,0.0000000,0.0085554,0.0000000,0.0000000,0.0022100
41.2533150,,0.9999400,-0.9021401,-0.4314359,0.0005494,0.0024345,,,,0.0000000,0.0000000,0.0000000,3.1761453,-6.6433659,-21.3250542,0.0000000,0.0000000,0.0000000,0.0999940,0.0640148,0.0000000,0.0000000,0.0083352,0.0000000,0.0000000,0.0000000,0.0640148,0.0000000,0.0000000,0.0083352,0.0000000,0.0000000,0.0000000,0.0640148,0.0000000,0.0000000,0.0083352,0.0083352,0.0000000,0.0000000,0.0021813,0.0000000,0.0000000,0.0000000,0.0083352,0.0000000,0.0000000,0.0021813,0.0000000,0.0000000,0.0000000,0.0083352,0.0000000,0.0000000,0.0021813
41.2666160,0.9999500,,-0.9021401,-0.4314359,0.0005494,0.0024345,-0.0063622,0.0042795,0.0111460,,,,3.1761453,-6.6433659,-21.3250542,0.0000000,0.0000000,0.0000000,0.0199990,0.0643482,0.0000000,0.0000000,0.0083789,0.0000000,0.0000000,0.0000000,0.0643482,0.0000000,0.0000000,0.0083789,0.0000000,0.0000000,0.0000000,0.0643482,0.0000000,0.0000000,0.0083789,0.0083789,0.0000000,0.0000000,0.0021870,0.0000000,0.0000000,0.0000000,0.0083789,0.0000000,0.0000000,0.0021870,0.0000000,0.0000000,0.0000000,0.0083789,0.0000000,0.0000000,0.0021870
41.2799970,1.4000001,,-0.9021401,-0.4314359,0.0005453,0.0024251,0.0006641,0.0028493,0.0060613,,,,3.1761453,-6.6433659,-21.3250542,0.0000000,0.0000000,0.0000000,0.0280000,0.0648174,0.0000000,0.0000000,0.0084402,0.0000000,0.0000000,0.0000000,0.0648174,0.0000000,0.0000000,0.0084402,0.0000000,0.0000000,0.0000000,0.0648174,0.0000000,0.0000000,0.0084402,0.0084402,0.0000000,0.0000000,0.0021950,0.0000000,0.0000000,0.0000000,0.0084402,0.0000000,0.0000000,0.0021950,0.0000000,0.0000000,0.0000000,0.0084402,0.0000000,0.0000000,0.0021950
41.3011910,1.0000501,,-0.9021401,-0.4314359,0.0005498,0.0024243,0.0039408,-0.0022527,0.0032748,,,,3.1761453,-6.6433659,-21.3250542,0.0000000,0.0000000,0.0000000,0.0200010,0.0651550,0.0000000,0.0000000,0.0084842,0.0000000,0.0000000,0.0000000,0.0651550,0.0000000,0.0000000,0.0084842,0.0000000,0.0000000,0.0000000,0.0651550,0.0000000,0.0000000,0.0084842,0.0084842,0.0000000,0.0000000,0.0022008,0.0000000,0.0000000,0.0000000,0.0084842,0.0000000,0.0000000,0.0022008,0.0000000,0.0000000,0.0000000,0.0084842,0.0000000,0.0000000,0.0022008
41.3199790,1.0002999,,-0.9021401,-0.4314359,0.0005511,0.0024308,-0.0002879,-0.0006381,0.0011491,,,,3.1761453,-6.6433659,-21.3250542,0.0000000,0.0000000,0.0000000,0.0200060,0.0654945,0.0000000,0.0000000,0.0085282,0.0000000,0.0000000,0.0000000,0.0654945,0.0000000,0.0000000,0.0085282,0.0000000,0.0000000,0.0000000,0.0654945,0.0000000,0.0000000,0.0085282,0.0085283,0.0000000,0.0000000,0.0022065,0.0000000,0.0000000,0.0000000,0.0085283,0.0000000,0.0000000,0.0022065,0.0000000,0.0000000,0.0000000,0.0085283,0.0000000,0.0000000,0.0022065
41.3408110,1.0496501,,-0.9021401,-0.4314359,0.0005404,0.0024485,0.0017176,0.0009169,0.0042367,,,,3.1761453,-6.6433659,-21.3250542,0.0000000,0.0000000,0.0000000,0.0209930,0.0658526,0.0000000,0.0000000,0.0085746,0.0000000,0.0000000,0.0000000,0.0658526,0.0000000,0.0000000,0.0085746,0.0000000,0.0000000,0.0000000,0.0658526,0.0000000,0.0000000,0.0085746,0.0085746,0.0000000,0.0000000,0.0022125,0.0000000,0.0000000,0.0000000,0.0085746,0.0000000,0.0000000,0.0022125,0.0000000,0.0000000,0.0000000,0.0085746,0.0000000,0.0000000,0.0022125
41.3570550,,1.0200800,-0.9021401,-0.4314359,0.0005404,0.0024485,,,,0.0000000,0.0000000,0.0000000,3.1761453,-6.6433659,-21.3250542,0.0000000,0.0000000,0.0000000,0.1020080,0.0641538,0.0000000,0.0000000,0.0083534,0.0000000,0.0000000,0.0000000,0.0641538,0.0000000,0.0000000,0.0083534,0.0000000,0.0000000,0.0000000,0.0641538,0.0000000,0.0000000,0.0083534,0.0083534,0.0000000,0.0000000,0.0021837,0.0000000,0.0000000,0.0000000,0.0083534,0.0000000,0.0000000,0.0021837,0.0000000,0.0000000,0.0000000,0.0083534,0.0000000,0.0000000,0.0021837
41.3707760,1.1002500,,-0.9021400,-0.4314359,0.0005332,0.0024556,-0.0002169,-0.0014870,-0.0037410,,,,3.1761453,-6.6433659,-21.3250542,0.0000000,0.0000000,0.0000000,0.0220050,0.0645215,0.0000000,0.0000000,0.0084016,0.0000000,0.0000000,0.0000000,0.0645215,0.0000000,0.0000000,0.0084016,0.0000000,0.0000000,0.0000000,0.0645215,0.0000000,0.0000000,0.0084016,0.0084016,0.0000000,0.0000000,0.0021900,0.0000000,0.0000000,0.0000000,0.0084016,0.0000000,0.0000000,0.0021900,0.0000000,0.0000000,0.0000000,0.0084016,0.0000000,0.0000000,0.0021900
41.3852850,1.0497000,,-0.9021401,-0.4314360,0.0005174,0.0024362,0.0034545,0.0023922,-0.0057768,,,,3.1761453,-6.6433659,-21.3250542,0.0000000,0.0000000,0.0000000,0.0209940,0.0648742,0.0000000,0.0000000,0.0084476,0.0000000,0.0000000,0.0000000,0.0648742,0.0000000,0.0000000,0.0084476,0.0000000,0.0000000,0.0000000,0.0648742,0.0000000,0.0000000,0.0084476,0.0084476,0.0000000,0.0000000,0.0021960,0.0000000,0.0000000,0.0000000,0.0084476,0.0000000,0.0000000,0.0021960,0.0000000,0.0000000,0.0000000,0.0084476,0.0000000,0.0000000,0.0021960
41.4037300,1.0003999,,-0.9021401,-0.4314361,0.0005056,0.0024144,0.0021240,0.0082075,0.0005296,,,,3.1761453,-6.6433659,-21.3250542,0.0000000,0.0000000,0.0000000,0.0200080,0.0652123,0.0000000,0.0000000,0.0084916,0.0000000,0.0000000,0.0000000,0.0652123,0.0000000,0.0000000,0.0084916,0.0000000,0.0000000,0.0000000,0.0652123,0.0000000,0.0000000,0.0084916,0.0084916,0.0000000,0.0000000,0.0022017,0.0000000,0.0000000,0.0000000,0.0084916,0.0000000,0.0000000,0.0022017,0.0000000,0.0000000,0.0000000,0.0084916,0.0000000,0.0000000,0.0022017
41.4240240,0.9997000,,-0.9021401,-0.4314361,0.0004865,0.0024208,0.0045944,-0.0025338,-0.0014442,,,,3.1761453,-6.6433659,-21.3250542,0.0000000,0.0000000,0.0000000,0.0199940,0.0655518,0.0000000,0.0000000,0.0085357,0.0000000,0.0000000,0.0000000,0.0655518,0.0000000,0.0000000,0.0085357,0.0000000,0.0000000,0.0000000,0.0655518,0.0000000,0.0000000,0.0085357,0.0085357,0.0000000,0.0000000,0.0022074,0.0000000,0.0000000,0.0000000,0.0085357,0.0000000,0.0000000,0.0022074,0.0000000,0.0000000,0.0000000,0.0085357,0.0000000,0.0000000,0.0022074
41.4437370,1.0000501,,-0.9021401,-0.4314361,0.0004854,0.0024388,-0.0034477,-0.0012822,0.0017193,,,,3.1761453,-6.6433659,-21.3250542,0.0000000,0.0000000,0.0000000,0.0200010,0.0658933,0.0000000,0.0000000,0.0085799,0.0000000,0.0000000,0.0000000,0.0658933,0.0000000,0.0000000,0.0085799,0.0000000,0.0000000,0.0000000,0.0658933,0.0000000,0.0000000,0.0085799,0.0085799,0.0000000,0.0000000,0.0022132,0.0000000,0.0000000,0.0000000,0.0085799,0.0000000,0.0000000,0.0022132,0.0000000,0.0000000,0.0000000,0.0085799,0.0000000,0.0000000,0.0022132
41.4597970,,0.9999400,-0.9021401,-0.4314361,0.0004854,0.0024388,,,,0.0000000,0.0000000,0.0000000,3.1761453,-6.6433659,-21.3250542,0.0000000,0.0000000,0.0000000,0.0999940,0.0641925,0.0000000,0.0000000,0.0083584,0.0000000,0.0000000,0.0000000,0.0641925,0.0000000,0.0000000,0.0083584,0.0000000,0.0000000,0.0000000,0.0641925,0.0000000,0.0000000,0.0083584,0.0083584,0.0000000,0.0000000,0.0021843,0.0000000,0.0000000,0.0000000,0.0083584,0.0000000,0.0000000,0.0021843,0.0000000,0.0000000,0.0000000,0.0083584,0.0000000,0.0000000,0.0021843
41.4735140,0.9999500,,-0.9021400,-0.4314361,0.0004916,0.0024523,-0.0037991,0.0003355,0.0018362,,,,3.1761453,-6.6433659,-21.3250542,0.0000000,0.0000000,0.0000000,0.0199990,0.0645268,0.0000000,0.0000000,0.0084021,0.0000000,0.0000000,0.0000000,0.0645268,0.0000000,0.0000000,0.0084021,0.0000000,0.0000000,0.0000000,0.0645268,0.0000000,0.0000000,0.0084021,0.0084022,0.0000000,0.0000000,0.0021900,0.0000000,0.0000000,0.0000000,0.0084022,0.0000000,0.0000000,0.0021900,0.0000000,0.0000000,0.0000000,0.0084022,0.0000000,0.0000000,0.0021900
41.4867840,1.1499000,,-0.9021400,-0.4314360,0.0005163,0.0024583,-0.0085753,-0.0022584,0.0045802,,,,3.1761453,-6.6433659,-21.3250542,0.0000000,0.0000000,0.0000000,0.0229980,0.0649132,0.0000000,0.0000000,0.0084526,0.0000000,0.0000000,0.0000000,0.0649132,0.0000000,0.0000000,0.0084526,0.0000000,0.0000000,0.0000000,0.0649132,0.0000000,0.0000000,0.0084526,0.0084526,0.0000000,0.0000000,0.0021966,0.0000000,0.0000000,0.0000000,0.0084526,0.0000000,0.0000000,0.0021966,0.0000000,0.0000000,0.0000000,0.0084526,0.0000000,0.0000000,0.0021966
41.5082500,1.0001000,,-0.9021401,-0.4314360,0.0005280,0.0024436,0.0010148,-0.0011445,0.0061964,,,,3.1761453,-6.6433659,-21.3250542,0.0000000,0.0000000,0.0000000,0.0200020,0.0652514,0.0000000,0.0000000,0.0084966,0.0000000,0.0000000,0.0000000,0.0652514,0.0000000,0.0000000,0.0084966,0.0000000,0.0000000,0.0000000,0.0652514,0.0000000,0.0000000,0.0084966,0.0084966,0.0000000,0.0000000,0.0022023,0.0000000,0.0000000,0.0000000,0.0084966,0.0000000,0.0000000,0.0022023,0.0000000,0.0000000,0.0000000,0.0084966,0.0000000,0.0000000,0.0022023
41.5268440,0.9999000,,-0.9021401,-0.4314360,0.0005371,0.0024314,0.0009346,-0.0032807,0.0043189,,,,3.1761453,-6.6433659,-21.3250542,0.0000000,0.0000000,0.0000000,0.0199980,0.0655912,0.0000000,0.0000000,0.0085407,0.0000000,0.0000000,0.0000000,0.0655912,0.0000000,0.0000000,0.0085407,0.0000000,0.0000000,0.0000000,0.0655912,0.0000000,0.0000000,0.0085407,0.0085407,0.0000000,0.0000000,0.0022081,0.0000000,0.0000000,0.0000000,0.0085407,0.0000000,0.0000000,0.0022081,0.0000000,0.0000000,0.0000000,0.0085407,0.0000000,0.0000000,0.0022081
41.5469030,1.0001000,,-0.9021401,-0.4314360,0.0005438,0.0024412,0.0033283,0.0039825,0.0070423,,,,3.1761453,-6.6433659,-21.3250542,0.0000000,0.0000000,0.0000000,0.0200020,0.0659329,0.0000000,0.0000000,0.0085849,0.0000000,0.0000000,0.0000000,0.0659329,0.0000000,0.0000000,0.0085849,0.0000000,0.0000000,0.0000000,0.0659329,0.0000000,0.0000000,0.0085849,0.0085849,0.0000000,0.0000000,0.0022138,0.0000000,0.0000000,0.0000000,0.0085849,0.0000000,0.0000000,0.0022138,0.0000000,0.0000000,0.0000000,0.0085849,0.0000000,0.0000000,0.0022138
41.5628040,,1.0199900,-0.9021401,-0.4314360,0.0005438,0.0024412,,,,0.0000000,0.0000000,0.0000000,3.1761453,-6.6433659,-21.3250542,0.0000000,0.0000000,0.0000000,0.1019990,0.0642300,0.0000000,0.0000000,0.0083632,0.0000000,0.0000000,0.0000000,0.0642300,0.0000000,0.0000000,0.0083632,0.0000000,0.0000000,0.0000000,0.0642300,0.0000000,0.0000000,0.0083632,0.0083632,0.0000000,0.0000000,0.0021849,0.0000000,0.0000000,0.0000000,0.0083632,0.0000000,0.0000000,0.0021849,0.0000000,0.0000000,0.0000000,0.0083632,0.0000000,0.0000000,0.0021849
41.5767780,0.9999000,,-0.9021401,-0.4314359,0.0005461,0.0024623,0.0086603,-0.0021210,0.0052301,,,,3.1761453,-6.6433659,-21.3250542,0.0000000,0.0000000,0.0000000,0.0199980,0.0645645,0.0000000,0.0000000,0.0084069,0.0000000,0.0000000,0.0000000,0.0645645,0.0000000,0.0000000,0.0084069,0.0000000,0.0000000,0.0000000,0.0645645,0.0000000,0.0000000,0.0084069,0.0084069,0.0000000,0.0000000,0.0021906,0.0000000,0.0000000,0.0000000,0.0084069,0.0000000,0.0000000,0.0021906,0.0000000,0.0000000,0.0000000,0.0084069,0.0000000,0.0000000,0.0021906
41.5895660,1.1500000,,-0.9021401,-0.4314359,0.0005718,0.0024570,0.0030866,0.0004349,-0.0017795,,,,3.1761453,-6.6433659,-21.3250542,0.0000000,0.0000000,0.0000000,0.0230000,0.0649512,0.0000000,0.0000000,0.0084574,0.0000000,0.0000000,0.0000000,0.0649512,0.0000000,0.0000000,0.0084574,0.0000000,0.0000000,0.0000000,0.0649512,0.0000000,0.0000000,0.0084574,0.0084574,0.0000000,0.0000000,0.0021972,0.0000000,0.0000000,0.0000000,0.0084574,0.0000000,0.0000000,0.0021972,0.0000000,0.0000000,0.0000000,0.0084574,0.0000000,0.0000000,0.0021972
41.6109200,1.0505501,,-0.9021401,-0.4314359,0.0005698,0.0024537,0.0017340,0.0034065,0.0039931,,,,3.1761453,-6.6433659,-21.3250542,0.0000000,0.0000000,0.0000000,0.0210110,0.0653066,0.0000000,0.0000000,0.0085036,0.0000000,0.0000000,0.0000000,0.0653066,0.0000000,0.0000000,0.0085036,0.0000000,0.0000000,0.0000000,0.0653066,0.0000000,0.0000000,0.0085036,0.0085036,0.0000000,0.0000000,0.0022032,0.0000000,0.0000000,0.0000000,0.0085036,0.0000000,0.0000000,0.0022032,0.0000000,0.0000000,0.0000000,0.0085036,0.0000000,0.0000000,0.0022032
41.6308580,0.9995500,,-0.9021401,-0.4314359,0.0005740,0.0024568,-0.0025967,-0.0026608,-0.0023980,,,,3.1761453,-6.6433659,-21.3250542,0.0000000,0.0000000,0.0000000,0.0199910,0.0656466,0.0000000,0.0000000,0.0085477,0.0000000,0.0000000,0.0000000,0.0656466,0.0000000,0.0000000,0.0085477,0.0000000,0.0000000,0.0000000,0.0656466,0.0000000,0.0000000,0.0085477,0.0085477,0.0000000,0.0000000,0.0022090,0.0000000,0.0000000,0.0000000,0.0085477,0.0000000,0.0000000,0.0022090,0.0000000,0.0000000,0.0000000,0.0085477,0.0000000,0.0000000,0.0022090
41.6521940,1.0000000,,-0.9021400,-0.4314359,0.0005743,0.0024872,-0.0030836,-0.0007582,-0.0109646,,,,3.1761453,-6.6433659,-21.3250542,0.0000000,0.0000000,0.0000000,0.0200000,0.0659885,0.0000000,0.0000000,0.0085919,0.0000000,0.0000000,0.0000000,0.0659885,0.0000000,0.0000000,0.0085919,0.0000000,0.0000000,0.0000000,0.0659885,0.0000000,0.0000000,0.0085919,0.0085919,0.0000000,0.0000000,0.0022147,0.0000000,0.0000000,0.0000000,0.0085919,0.0000000,0.0000000,0.0022147,0.0000000,0.0000000,0.0000000,0.0085919,0.0000000,0.0000000,0.0022147
41.6681020,,1.0000100,-0.9021400,-0.4314359,0.0005743,0.0025203,,,,0.0000000,0.0000000,0.0000000,3.1761453,-6.6433659,-21.3250542,0.0000000,0.0000000,0.0000000,0.1000010,0.0642829,0.0000000,0.0000000,0.0083699,0.0000000,0.0000000,0.0000000,0.0642829,0.0000000,0.0000000,0.0083699,0.0000000,0.0000000,0.0000000,0.0642829,0.0000000,0.0000000,0.0083699,0.0083699,0.0000000,0.0000000,0.0021858,0.0000000,0.0000000,0.0000000,0.0083699,0.0000000,0.0000000,0.0021858,0.0000000,0.0000000,0.0000000,0.0083699,0.0000000,0.0000000,0.0021858
41.6827540,1.0002501,,-0.9021399,-0.4314359,0.0005735,0.0025203,0.0005639,-0.0090537,-0.0059706,,,,3.1761453,-6.6433659,-21.3250542,0.0000000,0.0000000,0.0000000,0.0200050,0.0646177,0.0000000,0.0000000,0.0084136,0.0000000,0.0000000,0.0000000,0.0646177,0.0000000,0.0000000,0.0084136,0.0000000,0.0000000,0.0000000,0.0646177,0.0000000,0.0000000,0.0084136,0.0084136,0.0000000,0.0000000,0.0021915,0.0000000,0.0000000,0.0000000,0.0084136,0.0000000,0.0000000,0.0021915,0.0000000,0.0000000,0.0000000,0.0084136,0.0000000,0.0000000,0.0021915
41.6958180,1.2496500,,-0.9021399,-0.4314359,0.0005647,0.0025227,-0.0025028,0.0028813,-0.0066474,,,,3.1761453,-6.6433659,-21.3250542,0.0000000,0.0000000,0.0000000,0.0249930,0.0650383,0.0000000,0.0000000,0.0084685,0.0000000,0.0000000,0.0000000,0.0650383,0.0000000,0.0000000,0.0084685,0.0000000,0.0000000,0.0000000,0.0650383,0.0000000,0.0000000,0.0084685,0.0084685,0.0000000,0.0000000,0.0021986,0.0000000,0.0000000,0.0000000,0.0084685,0.0000000,0.0000000,0.0021986,0.0000000,0.0000000,0.0000000,0.0084685,0.0000000,0.0000000,0.0021986
41.7181880,1.0501001,,-0.9021399,-0.4314359,0.0005419,0.0025250,0.0000838,-0.0009321,0.0035122,,,,3.1761453,-6.6433659,-21.3250542,0.0000000,0.0000000,0.0000000,0.0210020,0.0653940,0.0000000,0.0000000,0.0085147,0.0000000,0.0000000,0.0000000,0.0653940,0.0000000,0.0000000,0.0085147,0.0000000,0.0000000,0.0000000,0.0653940,0.0000000,0.0000000,0.0085147,0.0085147,0.0000000,0.0000000,0.0022046,0.0000000,0.0000000,0.0000000,0.0085147,0.0000000,0.0000000,0.0022046,0.0000000,0.0000000,0.0000000,0.0085147,0.0000000,0.0000000,0.0022046
41.7367370,0.9999000,,-0.9021399,-0.4314360,0.0005242,0.0025011,-0.0037423,0.0041879,0.0037092,,,,3.1761453,-6.6433659,-21.3250542,0.0000000,0.0000000,0.0000000,0.0199980,0.0657346,0.0000000,0.0000000,0.0085589,0.0000000,0.0000000,0.0000000,0.0657346,0.0000000,0.0000000,0.0085589,0.0000000,0.0000000,0.0000000,0.0657346,0.0000000,0.0000000,0.0085589,0.0085589,0.0000000,0.0000000,0.0022104,0.0000000,0.0000000,0.0000000,0.0085589,0.0000000,0.0000000,0.0022104,0.0000000,0.0000000,0.0000000,0.0085589,0.0000000,0.0000000,0.0022104
41.7574720,,0.9999900,-0.9021399,-0.4314361,0.0004998,0.0024964,,,,0.0000000,0.0000000,0.0000000,3.1761453,-6.6433659,-21.3250542,0.0000000,0.0000000,0.0000000,0.0999990,0.0640418,0.0000000,0.0000000,0.0083385,0.0000000,0.0000000,0.0000000,0.0640418,0.0000000,0.0000000,0.0083385,0.0000000,0.0000000,0.0000000,0.0640418,0.0000000,0.0000000,0.0083385,0.0083385,0.0000000,0.0000000,0.0021817,0.0000000,0.0000000,0.0000000,0.0083385,0.0000000,0.0000000,0.0021817,0.0000000,0.0000000,0.0000000,0.0083385,0.0000000,0.0000000,0.0021817
41.7708110,1.0001000,,-0.9021399,-0.4314361,0.0004998,0.0024964,-0.0034886,-0.0035060,-0.0030282,,,,3.1761453,-6.6433659,-21.3250542,0.0000000,0.0000000,0.0000000,0.0200020,0.0643754,0.0000000,0.0000000,0.0083822,0.0000000,0.0000000,0.0000000,0.0643754,0.0000000,0.0000000,0.0083822,0.0000000,0.0000000,0.0000000,0.0643754,0.0000000,0.0000000,0.0083822,0.0083822,0.0000000,0.0000000,0.0021874,0.0000000,0.0000000,0.0000000,0.0083822,0.0000000,0.0000000,0.0021874,0.0000000,0.0000000,0.0000000,0.0083822,0.0000000,0.0000000,0.0021874
41.7839080,1.3499000,,-0.9021399,-0.4314362,0.0004714,0.0024880,-0.0006991,0.0011690,-0.0005375,,,,3.1761453,-6.6433659,-21.3250542,0.0000000,0.0000000,0.0000000,0.0269980,0.0648280,0.0000000,0.0000000,0.0084413,0.0000000,0.0000000,0.0000000,0.0648280,0.0000000,0.0000000,0.0084413,0.0000000,0.0000000,0.0000000,0.0648280,0.0000000,0.0000000,0.0084413,0.0084413,0.0000000,0.0000000,0.0021951,0.0000000,0.0000000,0.0000000,0.0084413,0.0000000,0.0000000,0.0021951,0.0000000,0.0000000,0.0000000,0.0084413,0.0000000,0.0000000,0.0021951
41.8052350,1.0003500,,-0.9021399,-0.4314362,0.0004701,0.0024980,-0.0017381,-0.0025588,-0.0027102,,,,3.1761453,-6.6433659,-21.3250542,0.0000000,0.0000000,0.0000000,0.0200070,0.0651658,0.0000000,0.0000000,0.0084853,0.0000000,0.0000000,0.0000000,0.0651658,0.0000000,0.0000000,0.0084853,0.0000000,0.0000000,0.0000000,0.0651658,0.0000000,0.0000000,0.0084853,0.0084853,0.0000000,0.0000000,0.0022008,0.0000000,0.0000000,0.0000000,0.0084853,0.0000000,0.0000000,0.0022008,0.0000000,0.0000000,0.0000000,0.0084853,0.0000000,0.0000000,0.0022008
41.8238130,1.0000000,,-0.9021399,-0.4314362,0.0004694,0.0024979,0.0043418,-0.0017524,0.0057250,,,,3.1761453,-6.6433659,-21.3250542,0.0000000,0.0000000,0.0000000,0.0200000,0.0655052,0.0000000,0.0000000,0.0085293,0.0000000,0.0000000,0.0000000,0.0655052,0.0000000,0.0000000,0.0085293,0.0000000,0.0000000,0.0000000,0.0655052,0.0000000,0.0000000,0.0085293,0.0085293,0.0000000,0.0000000,0.0022066,0.0000000,0.0000000,0.0000000,0.0085293,0.0000000,0.0000000,0.0022066,0.0000000,0.0000000,0.0000000,0.0085293,0.0000000,0.0000000,0.0022066
41.8440750,1.0000000,,-0.9021399,-0.4314361,0.0004902,0.0024907,0.0025371,-0.0023182,-0.0012879,,,,3.1761453,-6.6433659,-21.3250542,0.0000000,0.0000000,0.0000000,0.0200000,0.0658464,0.0000000,0.0000000,0.0085735,0.0000000,0.0000000,0.0000000,0.0658464,0.0000000,0.0000000,0.0085735,0.0000000,0.0000000,0.0000000,0.0658464,0.0000000,0.0000000,0.0085735,0.0085735,0.0000000,0.0000000,0.0022123,0.0000000,0.0000000,0.0000000,0.0085735,0.0000000,0.0000000,0.0022123,0.0000000,0.0000000,0.0000000,0.0085735,0.0000000,0.0000000,0.0022123
41.8599730,,1.0000000,-0.9021399,-0.4314361,0.0004902,0.0024873,,,,0.0000000,0.0000000,0.0000000,3.1761453,-6.6433659,-21.3250542,0.0000000,0.0000000,0.0000000,0.1000000,0.0641479,0.0000000,0.0000000,0.0083524,0.0000000,0.0000000,0.0000000,0.0641479,0.0000000,0.0000000,0.0083524,0.0000000,0.0000000,0.0000000,0.0641479,0.0000000,0.0000000,0.0083524,0.0083524,0.0000000,0.0000000,0.0021835,0.0000000,0.0000000,0.0000000,0.0083524,0.0000000,0.0000000,0.0021835,0.0000000,0.0000000,0.0000000,0.0083524,0.0000000,0.0000000,0.0021835
41.8738550,1.0000000,,-0.9021399,-0.4314361,0.0005124,0.0024873,0.0038549,0.0005804,-0.0003998,,,,3.1761453,-6.6433659,-21.3250542,0.0000000,0.0000000,0.0000000,0.0200000,0.0644820,0.0000000,0.0000000,0.0083961,0.0000000,0.0000000,0.0000000,0.0644820,0.0000000,0.0000000,0.0083961,0.0000000,0.0000000,0.0000000,0.0644820,0.0000000,0.0000000,0.0083961,0.0083961,0.0000000,0.0000000,0.0021892,0.0000000,0.0000000,0.0000000,0.0083961,0.0000000,0.0000000,0.0021892,0.0000000,0.0000000,0.0000000,0.0083961,0.0000000,0.0000000,0.0021892
41.8867780,1.1496500,,-0.9021399,-0.4314359,0.0005514,0.0024906,0.0011416,0.0001147,0.0012649,,,,3.1761453,-6.6433659,-21.3250542,0.0000000,0.0000000,0.0000000,0.0229930,0.0648681,0.0000000,0.0000000,0.0084465,0.0000000,0.0000000,0.0000000,0.0648681,0.0000000,0.0000000,0.0084465,0.0000000,0.0000000,0.0000000,0.0648681,0.0000000,0.0000000,0.0084465,0.0084465,0.0000000,0.0000000,0.0021958,0.0000000,0.0000000,0.0000000,0.0084465,0.0000000,0.0000000,0.0021958,0.0000000,0.0000000,0.0000000,0.0084465,0.0000000,0.0000000,0.0021958
41.9079350,1.0502001,,-0.9021399,-0.4314360,0.0005347,0.0024890,0.0116868,0.0022852,-0.0052269,,,,3.1761453,-6.6433659,-21.3250542,0.0000000,0.0000000,0.0000000,0.0210040,0.0652229,0.0000000,0.0000000,0.0084927,0.0000000,0.0000000,0.0000000,0.0652229,0.0000000,0.0000000,0.0084927,0.0000000,0.0000000,0.0000000,0.0652229,0.0000000,0.0000000,0.0084927,0.0084927,0.0000000,0.0000000,0.0022018,0.0000000,0.0000000,0.0000000,0.0084927,0.0000000,0.0000000,0.0022018,0.0000000,0.0000000,0.0000000,0.0084927,0.0000000,0.0000000,0.0022018
41.9280170,1.0002000,,-0.9021399,-0.4314360,0.0005182,0.0025051,0.0091164,-0.0019778,-0.0060314,,,,3.1761453,-6.6433659,-21.3250542,0.0000000,0.0000000,0.0000000,0.0200040,0.0655627,0.0000000,0.0000000,0.0085368,0.0000000,0.0000000,0.0000000,0.0655627,0.0000000,0.0000000,0.0085368,0.0000000,0.0000000,0.0000000,0.0655627,0.0000000,0.0000000,0.0085368,0.0085368,0.0000000,0.0000000,0.0022075,0.0000000,0.0000000,0.0000000,0.0085368,0.0000000,0.0000000,0.0022075,0.0000000,0.0000000,0.0000000,0.0085368,0.0000000,0.0000000,0.0022075
41.9480510,1.0000501,,-0.9021399,-0.4314360,0.0005243,0.0025158,-0.0026439,-0.0060472,-0.0049688,,,,3.1761453,-6.6433659,-21.3250542,0.0000000,0.0000000,0.0000000,0.0200010,0.0659042,0.0000000,0.0000000,0.0085810,0.0000000,0.0000000,0.0000000,0.0659042,0.0000000,0.0000000,0.0085810,0.0000000,0.0000000,0.0000000,0.0659042,0.0000000,0.0000000,0.0085810,0.0085810,0.0000000,0.0000000,0.0022132,0.0000000,0.0000000,0.0000000,0.0085810,0.0000000,0.0000000,0.0022132,0.0000000,0.0000000,0.0000000,0.0085810,0.0000000,0.0000000,0.0022132
41.9639080,,1.0000000,-0.9021399,-0.4314360,0.0005243,0.0025032,,,,0.0000000,0.0000000,0.0000000,3.1761453,-6.6433659,-21.3250542,0.0000000,0.0000000,0.0000000,0.1000000,0.0642028,0.0000000,0.0000000,0.0083595,0.0000000,0.0000000,0.0000000,0.0642028,0.0000000,0.0000000,0.0083595,0.0000000,0.0000000,0.0000000,0.0642028,0.0000000,0.0000000,0.0083595,0.0083595,0.0000000,0.0000000,0.0021844,0.0000000,0.0000000,0.0000000,0.0083595,0.0000000,0.0000000,0.0021844,0.0000000,0.0000000,0.0000000,0.0083595,0.0000000,0.0000000,0.0021844
41.9778570,0.9998500,,-0.9021399,-0.4314360,0.0005195,0.0025032,-0.0016805,-0.0020165,0.0031308,,,,3.1761453,-6.6433659,-21.3250542,0.0000000,0.0000000,0.0000000,0.0199970,0.0645372,0.0000000,0.0000000,0.0084032,0.0000000,0.0000000,0.0000000,0.0645372,0.0000000,0.0000000,0.0084032,0.0000000,0.0000000,0.0000000,0.0645372,0.0000000,0.0000000,0.0084032,0.0084032,0.0000000,0.0000000,0.0021901,0.0000000,0.0000000,0.0000000,0.0084032,0.0000000,0.0000000,0.0021901,0.0000000,0.0000000,0.0000000,0.0084032,0.0000000,0.0000000,0.0021901
41.9905980,1.1497501,,-0.9021399,-0.4314360,0.0005349,0.0025176,-0.0011912,0.0020053,0.0001006,,,,3.1761453,-6.6433659,-21.3250542,0.0000000,0.0000000,0.0000000,0.0229950,0.0649236,0.0000000,0.0000000,0.0084536,0.0000000,0.0000000,0.0000000,0.0649236,0.0000000,0.0000000,0.0084536,0.0000000,0.0000000,0.0000000,0.0649236,0.0000000,0.0000000,0.0084536,0.0084536,0.0000000,0.0000000,0.0021967,0.0000000,0.0000000,0.0000000,0.0084536,0.0000000,0.0000000,0.0021967,0.0000000,0.0000000,0.0000000,0.0084536,0.0000000,0.0000000,0.0021967
42.0117410,1.0500500,,-0.9021399,-0.4314360,0.0005382,0.0025204,-0.0021673,0.0027803,0.0063979,,,,3.1761453,-6.6433659,-21.3250542,0.0000000,0.0000000,0.0000000,0.0210010,0.0652787,0.0000000,0.0000000,0.0084998,0.0000000,0.0000000,0.0000000,0.0652787,0.0000000,0.0000000,0.0084998,0.0000000,0.0000000,0.0000000,0.0652787,0.0000000,0.0000000,0.0084998,0.0084998,0.0000000,0.0000000,0.0022027,0.0000000,0.0000000,0.0000000,0.0084998,0.0000000,0.0000000,0.0022027,0.0000000,0.0000000,0.0000000,0.0084998,0.0000000,0.0000000,0.0022027
42.0332430,0.9999500,,-0.9021398,-0.4314359,0.0005502,0.0025350,-0.0009387,-0.0036300,0.0039314,,,,3.1761453,-6.6433659,-21.3250542,0.0000000,0.0000000,0.0000000,0.0199990,0.0656187,0.0000000,0.0000000,0.0085439,0.0000000,0.0000000,0.0000000,0.0656187,0.0000000,0.0000000,0.0085439,0.0000000,0.0000000,0.0000000,0.0656187,0.0000000,0.0000000,0.0085439,0.0085439,0.0000000,0.0000000,0.0022084,0.0000000,0.0000000,0.0000000,0.0085439,0.0000000,0.0000000,0.0022084,0.0000000,0.0000000,0.0000000,0.0085439,0.0000000,0.0000000,0.0022084
42.0518550,0.9999500,,-0.9021398,-0.4314359,0.0005689,0.0025511,0.0001792,0.0012444,0.0022098,,,,3.1761453,-6.6433659,-21.3250542,0.0000000,0.0000000,0.0000000,0.0199990,0.0659604,0.0000000,0.0000000,0.0085882,0.0000000,0.0000000,0.0000000,0.0659604,0.0000000,0.0000000,0.0085882,0.0000000,0.0000000,0.0000000,0.0659604,0.0000000,0.0000000,0.0085882,0.0085882,0.0000000,0.0000000,0.0022142,0.0000000,0.0000000,0.0000000,0.0085882,0.0000000,0.0000000,0.0022142,0.0000000,0.0000000,0.0000000,0.0085882,0.0000000,0.0000000,0.0022142
42.0676470,,1.0000900,-0.9021398,-0.4314359,0.0005689,0.0025511,,,,0.0000000,0.0000000,0.0000000,3.1761453,-6.6433659,-21.3250542,0.0000000,0.0000000,0.0000000,0.1000090,0.0642562,0.0000000,0.0000000,0.0083663,0.0000000,0.0000000,0.0000000,0.0642562,0.0000000,0.0000000,0.0083663,0.0000000,0.0000000,0.0000000,0.0642562,0.0000000,0.0000000,0.0083663,0.0083663,0.0000000,0.0000000,0.0021853,0.0000000,0.0000000,0.0000000,0.0083663,0.0000000,0.0000000,0.0021853,0.0000000,0.0000000,0.0000000,0.0083663,0.0000000,0.0000000,0.0021853
42.0815770,1.0000000,,-0.9021398,-0.4314359,0.0005658,0.0025559,0.0070628,0.0002484,0.0028139,,,,3.1761453,-6.6433659,-21.3250542,0.0000000,0.0000000,0.0000000,0.0200000,0.0645908,0.0000000,0.0000000,0.0084100,0.0000000,0.0000000,0.0000000,0.0645908,0.0000000,0.0000000,0.0084100,0.0000000,0.0000000,0.0000000,0.0645908,0.0000000,0.0000000,0.0084100,0.0084100,0.0000000,0.0000000,0.0021910,0.0000000,0.0000000,0.0000000,0.0084100,0.0000000,0.0000000,0.0021910,0.0000000,0.0000000,0.0000000,0.0084100,0.0000000,0.0000000,0.0021910
42.0946900,1.1500000,,-0.9021397,-0.4314359,0.0005554,0.0025742,0.0021734,0.0083181,0.0031159,,,,3.1761453,-6.6433659,-21.3250542,0.0000000,0.0000000,0.0000000,0.0230000,0.0649777,0.0000000,0.0000000,0.0084605,0.0000000,0.0000000,0.0000000,0.0649777,0.0000000,0.0000000,0.0084605,0.0000000,0.0000000,0.0000000,0.0649777,0.0000000,0.0000000,0.0084605,0.0084605,0.0000000,0.0000000,0.0021976,0.0000000,0.0000000,0.0000000,0.0084605,0.0000000,0.0000000,0.0021976,0.0000000,0.0000000,0.0000000,0.0084605,0.0000000,0.0000000,0.0021976
42.1158340,1.0501001,,-0.9021396,-0.4314359,0.0005388,0.0026180,-0.0010495,-0.0005330,-0.0023483,,,,3.1761453,-6.6433659,-21.3250542,0.0000000,0.0000000,0.0000000,0.0210020,0.0653331,0.0000000,0.0000000,0.0085067,0.0000000,0.0000000,0.0000000,0.0653331,0.0000000,0.0000000,0.0085067,0.0000000,0.0000000,0.0000000,0.0653331,0.0000000,0.0000000,0.0085067,0.0085067,0.0000000,0.0000000,0.0022036,0.0000000,0.0000000,0.0000000,0.0085067,0.0000000,0.0000000,0.0022036,0.0000000,0.0000000,0.0000000,0.0085067,0.0000000,0.0000000,0.0022036
42.1382360,1.0499500,,-0.9021395,-0.4314359,0.0005435,0.0026383,-0.0004408,0.0048147,0.0019997,,,,3.1761453,-6.6433659,-21.3250542,0.0000000,0.0000000,0.0000000,0.0209990,0.0656903,0.0000000,0.0000000,0.0085530,0.0000000,0.0000000,0.0000000,0.0656903,0.0000000,0.0000000,0.0085530,0.0000000,0.0000000,0.0000000,0.0656903,0.0000000,0.0000000,0.0085530,0.0085530,0.0000000,0.0000000,0.0022096,0.0000000,0.0000000,0.0000000,0.0085530,0.0000000,0.0000000,0.0022096,0.0000000,0.0000000,0.0000000,0.0085530,0.0000000,0.0000000,0.0022096
42.1560790,,0.9999000,-0.9021395,-0.4314359,0.0005429,0.0026681,,,,0.0000000,0.0000000,0.0000000,3.1761453,-6.6433659,-21.3250542,0.0000000,0.0000000,0.0000000,0.0999900,0.0639998,0.0000000,0.0000000,0.0083329,0.0000000,0.0000000,0.0000000,0.0639998,0.0000000,0.0000000,0.0083329,0.0000000,0.0000000,0.0000000,0.0639998,0.0000000,0.0000000,0.0083329,0.0083329,0.0000000,0.0000000,0.0021809,0.0000000,0.0000000,0.0000000,0.0083329,0.0000000,0.0000000,0.0021809,0.0000000,0.0000000,0.0000000,0.0083329,0.0000000,0.0000000,0.0021809
42.1696450,0.9999500,,-0.9021395,-0.4314359,0.0005429,0.0026681,-0.0026008,0.0014155,-0.0014416,,,,3.1761453,-6.6433659,-21.3250542,0.0000000,0.0000000,0.0000000,0.0199990,0.0643331,0.0000000,0.0000000,0.0083766,0.0000000,0.0000000,0.0000000,0.0643331,0.0000000,0.0000000,0.0083766,0.0000000,0.0000000,0.0000000,0.0643331,0.0000000,0.0000000,0.0083766,0.0083766,0.0000000,0.0000000,0.0021866,0.0000000,0.0000000,0.0000000,0.0083766,0.0000000,0.0000000,0.0021866,0.0000000,0.0000000,0.0000000,0.0083766,0.0000000,0.0000000,0.0021866
42.1824740,1.3004000,,-0.9021395,-0.4314359,0.0005598,0.0026430,-0.0070301,0.0064985,0.0019648,,,,3.1761453,-6.6433659,-21.3250542,0.0000000,0.0000000,0.0000000,0.0260080,0.0647689,0.0000000,0.0000000,0.0084336,0.0000000,0.0000000,0.0000000,0.0647689,0.0000000,0.0000000,0.0084336,0.0000000,0.0000000,0.0000000,0.0647689,0.0000000,0.0000000,0.0084336,0.0084336,0.0000000,0.0000000,0.0021941,0.0000000,0.0000000,0.0000000,0.0084336,0.0000000,0.0000000,0.0021941,0.0000000,0.0000000,0.0000000,0.0084336,0.0000000,0.0000000,0.0021941
42.2039710,1.0498000,,-0.9021395,-0.4314359,0.0005622,0.0026417,-0.0026758,-0.0004663,-0.0012149,,,,3.1761453,-6.6433659,-21.3250542,0.0000000,0.0000000,0.0000000,0.0209960,0.0651230,0.0000000,0.0000000,0.0084797,0.0000000,0.0000000,0.0000000,0.0651230,0.0000000,0.0000000,0.0084797,0.0000000,0.0000000,0.0000000,0.0651230,0.0000000,0.0000000,0.0084797,0.0084797,0.0000000,0.0000000,0.0022001,0.0000000,0.0000000,0.0000000,0.0084797,0.0000000,0.0000000,0.0022001,0.0000000,0.0000000,0.0000000,0.0084797,0.0000000,0.0000000,0.0022001
42.2252430,1.0002501,,-0.9021395,-0.4314358,0.0005723,0.0026583,-0.0022077,-0.0036664,-0.0028047,,,,3.1761453,-6.6433659,-21.3250542,0.0000000,0.0000000,0.0000000,0.0200050,0.0654623,0.0000000,0.0000000,0.0085238,0.0000000,0.0000000,0.0000000,0.0654623,0.0000000,0.0000000,0.0085238,0.0000000,0.0000000,0.0000000,0.0654623,0.0000000,0.0000000,0.0085238,0.0085238,0.0000000,0.0000000,0.0022058,0.0000000,0.0000000,0.0000000,0.0085238,0.0000000,0.0000000,0.0022058,0.0000000,0.0000000,0.0000000,0.0085238,0.0000000,0.0000000,0.0022058
42.2438660,1.0000501,,-0.9021395,-0.4314358,0.0005817,0.0026575,0.0014597,0.0017984,-0.0060410,,,,3.1761453,-6.6433659,-21.3250542,0.0000000,0.0000000,0.0000000,0.0200010,0.0658032,0.0000000,0.0000000,0.0085679,0.0000000,0.0000000,0.0000000,0.0658032,0.0000000,0.0000000,0.0085679,0.0000000,0.0000000,0.0000000,0.0658032,0.0000000,0.0000000,0.0085679,0.0085679,0.0000000,0.0000000,0.0022115,0.0000000,0.0000000,0.0000000,0.0085679,0.0000000,0.0000000,0.0022115,0.0000000,0.0000000,0.0000000,0.0085679,0.0000000,0.0000000,0.0022115
42.2598910,,1.0000100,-0.9021395,-0.4314358,0.0005817,0.0026575,,,,0.0000000,0.0000000,0.0000000,3.1761453,-6.6433659,-21.3250542,0.0000000,0.0000000,0.0000000,0.1000010,0.0641070,0.0000000,0.0000000,0.0083471,0.0000000,0.0000000,0.0000000,0.0641070,0.0000000,0.0000000,0.0083471,0.0000000,0.0000000,0.0000000,0.0641070,0.0000000,0.0000000,0.0083471,0.0083471,0.0000000,0.0000000,0.0021828,0.0000000,0.0000000,0.0000000,0.0083471,0.0000000,0.0000000,0.0021828,0.0000000,0.0000000,0.0000000,0.0083471,0.0000000,0.0000000,0.0021828
42.2735480,0.9999000,,-0.9021395,-0.4314358,0.0005985,0.0026693,0.0013554,-0.0042277,-0.0059502,,,,3.1761453,-6.6433659,-21.3250542,0.0000000,0.0000000,0.0000000,0.0199980,0.0644408,0.0000000,0.0000000,0.0083908,0.0000000,0.0000000,0.0000000,0.0644408,0.0000000,0.0000000,0.0083908,0.0000000,0.0000000,0.0000000,0.0644408,0.0000000,0.0000000,0.0083908,0.0083908,0.0000000,0.0000000,0.0021885,0.0000000,0.0000000,0.0000000,0.0083908,0.0000000,0.0000000,0.0021885,0.0000000,0.0000000,0.0000000,0.0083908,0.0000000,0.0000000,0.0021885
42.2866920,1.1496000,,-0.9021395,-0.4314359,0.0005543,0.0026581,0.0136706,0.0022044,-0.0046841,,,,3.1761453,-6.6433659,-21.3250542,0.0000000,0.0000000,0.0000000,0.0229920,0.0648267,0.0000000,0.0000000,0.0084412,0.0000000,0.0000000,0.0000000,0.0648267,0.0000000,0.0000000,0.0084412,0.0000000,0.0000000,0.0000000,0.0648267,0.0000000,0.0000000,0.0084412,0.0084412,0.0000000,0.0000000,0.0021951,0.0000000,0.0000000,0.0000000,0.0084412,0.0000000,0.0000000,0.0021951,0.0000000,0.0000000,0.0000000,0.0084412,0.0000000,0.0000000,0.0021951
42.3078310,1.0502001,,-0.9021353,-0.4314447,0.0005149,0.0026717,0.0102609,-0.0033458,-0.0035627,,,,3.1761453,-6.6433659,-21.3250542,0.0000000,0.0000000,0.0000000,0.0210040,0.0651813,0.0000000,0.0000000,0.0084873,0.0000000,0.0000000,0.0000000,0.0651813,0.0000000,0.0000000,0.0084873,0.0000000,0.0000000,0.0000000,0.0651813,0.0000000,0.0000000,0.0084873,0.0084873,0.0000000,0.0000000,0.0022011,0.0000000,0.0000000,0.0000000,0.0084873,0.0000000,0.0000000,0.0022011,0.0000000,0.0000000,0.0000000,0.0084873,0.0000000,0.0000000,0.0022011
42.3291590,1.0503000,,-0.9020954,-0.4315259,0.0006166,0.0029528,0.0168339,0.0140055,-0.0166816,,,,3.1761453,-6.6433659,-21.3250542,0.0000000,0.0000000,0.0000000,0.0210060,0.0655379,0.0000000,0.0000000,0.0085336,0.0000000,0.0000000,0.0000000,0.0655379,0.0000000,0.0000000,0.0085336,0.0000000,0.0000000,0.0000000,0.0655379,0.0000000,0.0000000,0.0085336,0.0085336,0.0000000,0.0000000,0.0022071,0.0000000,0.0000000,0.0000000,0.0085336,0.0000000,0.0000000,0.0022071,0.0000000,0.0000000,0.0000000,0.0085336,0.0000000,0.0000000,0.0022071
42.3488440,0.9999500,,-0.9020480,-0.4316228,0.0007742,0.0032200,-0.0027448,0.0110463,-0.0251941,,,,3.1761453,-6.6433659,-21.3250542,0.0000000,0.0000000,0.0000000,0.0199990,0.0658792,0.0000000,0.0000000,0.0085778,0.0000000,0.0000000,0.0000000,0.0658792,0.0000000,0.0000000,0.0085778,0.0000000,0.0000000,0.0000000,0.0658792,0.0000000,0.0000000,0.0085778,0.0085778,0.0000000,0.0000000,0.0022128,0.0000000,0.0000000,0.0000000,0.0085778,0.0000000,0.0000000,0.0022128,0.0000000,0.0000000,0.0000000,0.0085778,0.0000000,0.0000000,0.0022128
42.3648790,,1.0000900,-0.9020480,-0.4316228,0.0007742,0.0032200,,,,0.0000000,0.0000000,0.0000000,3.1761453,-6.6433659,-21.3250542,0.0000000,0.0000000,0.0000000,0.1000090,0.0641791,0.0000000,0.0000000,0.0083565,0.0000000,0.0000000,0.0000000,0.0641791,0.0000000,0.0000000,0.0083565,0.0000000,0.0000000,0.0000000,0.0641791,0.0000000,0.0000000,0.0083565,0.0083565,0.0000000,0.0000000,0.0021840,0.0000000,0.0000000,0.0000000,0.0083565,0.0000000,0.0000000,0.0021840,0.0000000,0.0000000,0.0000000,0.0083565,0.0000000,0.0000000,0.0021840
42.3785110,0.9999500,,-0.9020126,-0.4316948,0.0009337,0.0034408,-0.0173407,0.0337138,-0.0255441,,,,3.1761453,-6.6433659,-21.3250542,0.0000000,0.0000000,0.0000000,0.0199990,0.0645133,0.0000000,0.0000000,0.0084002,0.0000000,0.0000000,0.0000000,0.0645133,0.0000000,0.0000000,0.0084002,0.0000000,0.0000000,0.0000000,0.0645133,0.0000000,0.0000000,0.0084002,0.0084002,0.0000000,0.0000000,0.0021897,0.0000000,0.0000000,0.0000000,0.0084002,0.0000000,0.0000000,0.0021897,0.0000000,0.0000000,0.0000000,0.0084002,0.0000000,0.0000000,0.0021897
42.3917240,1.1496000,,-0.9019920,-0.4317370,0.0009387,0.0035434,0.0037961,0.0005376,-0.0091176,,,,3.1761453,-6.6433659,-21.3250542,0.0000000,0.0000000,0.0000000,0.0229920,0.0648996,0.0000000,0.0000000,0.0084506,0.0000000,0.0000000,0.0000000,0.0648996,0.0000000,0.0000000,0.0084506,0.0000000,0.0000000,0.0000000,0.0648996,0.0000000,0.0000000,0.0084506,0.0084506,0.0000000,0.0000000,0.0021963,0.0000000,0.0000000,0.0000000,0.0084506,0.0000000,0.0000000,0.0021963,0.0000000,0.0000000,0.0000000,0.0084506,0.0000000,0.0000000,0.0021963
42.4128020,1.0502001,,-0.9019827,-0.4317545,0.0009902,0.0037596,-0.0000932,0.0218829,0.0169103,,,,3.1761453,-6.6433659,-21.3250542,0.0000000,0.0000000,0.0000000,0.0210040,0.0652546,0.0000000,0.0000000,0.0084968,0.0000000,0.0000000,0.0000000,0.0652546,0.0000000,0.0000000,0.0084968,0.0000000,0.0000000,0.0000000,0.0652546,0.0000000,0.0000000,0.0084968,0.0084968,0.0000000,0.0000000,0.0022023,0.0000000,0.0000000,0.0000000,0.0084968,0.0000000,0.0000000,0.0022023,0.0000000,0.0000000,0.0000000,0.0084968,0.0000000,0.0000000,0.0022023
42.4353230,1.0501500,,-0.9019656,-0.4317869,0.0012345,0.0040439,0.0309135,-0.0352927,0.0638598,,,,3.1761453,-6.6433659,-21.3250542,0.0000000,0.0000000,0.0000000,0.0210030,0.0656115,0.0000000,0.0000000,0.0085431,0.0000000,0.0000000,0.0000000,0.0656115,0.0000000,0.0000000,0.0085431,0.0000000,0.0000000,0.0000000,0.0656115,0.0000000,0.0000000,0.0085431,0.0085431,0.0000000,0.0000000,0.0022083,0.0000000,0.0000000,0.0000000,0.0085431,0.0000000,0.0000000,0.0022083,0.0000000,0.0000000,0.0000000,0.0085431,0.0000000,0.0000000,0.0022083
42.4573290,,0.9999800,-0.9019032,-0.4319132,0.0013943,0.0044026,,,,-0.0878074,-0.1090630,-0.0001771,3.1738882,-6.6461692,-21.3250580,0.0000000,0.0000000,0.0000000,0.0999980,0.0639250,0.0000000,0.0000000,0.0083235,0.0000000,0.0000000,0.0000000,0.0639250,0.0000000,0.0000000,0.0083235,0.0000000,0.0000000,0.0000000,0.0639250,0.0000000,0.0000000,0.0083235,0.0083235,0.0000000,0.0000000,0.0021797,0.0000000,0.0000000,0.0000000,0.0083235,0.0000000,0.0000000,0.0021797,0.0000000,0.0000000,0.0000000,0.0083235,0.0000000,0.0000000,0.0021797
42.4708380,1.0498000,,-0.9019032,-0.4319132,0.0013943,0.0044026,-0.0535511,-0.0644374,-0.0125266,,,,3.1738882,-6.6461692,-21.3250580,0.0000000,0.0000000,0.0000000,0.0209960,0.0642745,0.0000000,0.0000000,0.0083693,0.0000000,0.0000000,0.0000000,0.0642745,0.0000000,0.0000000,0.0083693,0.0000000,0.0000000,0.0000000,0.0642745,0.0000000,0.0000000,0.0083693,0.0083693,0.0000000,0.0000000,0.0021857,0.0000000,0.0000000,0.0000000,0.0083693,0.0000000,0.0000000,0.0021857,0.0000000,0.0000000,0.0000000,0.0083693,0.0000000,0.0000000,0.0021857
42.4839990,1.4498501,,-0.9018911,-0.4319392,0.0011329,0.0044115,0.0270345,0.0243914,-0.0170207,,,,3.1738882,-6.6461692,-21.3250580,0.0000000,0.0000000,0.0000000,0.0289970,0.0647599,0.0000000,0.0000000,0.0084328,0.0000000,0.0000000,0.0000000,0.0647599,0.0000000,0.0000000,0.0084328,0.0000000,0.0000000,0.0000000,0.0647599,0.0000000,0.0000000,0.0084328,0.0084328,0.0000000,0.0000000,0.0021940,0.0000000,0.0000000,0.0000000,0.0084328,0.0000000,0.0000000,0.0021940,0.0000000,0.0000000,0.0000000,0.0084328,0.0000000,0.0000000,0.0021940
42.5040090,1.0008000,,-0.9018068,-0.4321094,0.0012306,0.0048934,0.0121516,-0.1322821,-0.0095174,,,,3.1738882,-6.6461692,-21.3250580,0.0000000,0.0000000,0.0000000,0.0200160,0.0650975,0.0000000,0.0000000,0.0084768,0.0000000,0.0000000,0.0000000,0.0650975,0.0000000,0.0000000,0.0084768,0.0000000,0.0000000,0.0000000,0.0650975,0.0000000,0.0000000,0.0084768,0.0084768,0.0000000,0.0000000,0.0021998,0.0000000,0.0000000,0.0000000,0.0084768,0.0000000,0.0000000,0.0021998,0.0000000,0.0000000,0.0000000,0.0084768,0.0000000,0.0000000,0.0021998
42.5237160,1.0000000,,-0.9018357,-0.4320483,0.0010640,0.0050155,0.0434904,0.0699902,-0.0345668,,,,3.1738882,-6.6461692,-21.3250580,0.0000000,0.0000000,0.0000000,0.0200000,0.0654366,0.0000000,0.0000000,0.0085208,0.0000000,0.0000000,0.0000000,0.0654366,0.0000000,0.0000000,0.0085208,0.0000000,0.0000000,0.0000000,0.0654366,0.0000000,0.0000000,0.0085208,0.0085208,0.0000000,0.0000000,0.0022055,0.0000000,0.0000000,0.0000000,0.0085208,0.0000000,0.0000000,0.0022055,0.0000000,0.0000000,0.0000000,0.0085208,0.0000000,0.0000000,0.0022055
42.5446710,1.0493500,,-0.9018184,-0.4320739,0.0013368,0.0057586,-0.0120759,-0.1754846,0.0378543,,,,3.1738882,-6.6461692,-21.3250580,0.0000000,0.0000000,0.0000000,0.0209870,0.0657942,0.0000000,0.0000000,0.0085672,0.0000000,0.0000000,0.0000000,0.0657942,0.0000000,0.0000000,0.0085672,0.0000000,0.0000000,0.0000000,0.0657942,0.0000000,0.0000000,0.0085672,0.0085672,0.0000000,0.0000000,0.0022115,0.0000000,0.0000000,0.0000000,0.0085672,0.0000000,0.0000000,0.0022115,0.0000000,0.0000000,0.0000000,0.0085672,0.0000000,0.0000000,0.0022115
42.5609730,,1.0200000,-0.9018184,-0.4320739,0.0013368,0.0057586,,,,-0.2199119,-0.2859143,-0.0010148,3.1682203,-6.6535382,-21.3250847,-0.0007380,-0.0009595,-0.0000034,0.1020000,0.0640984,0.0000000,0.0000000,0.0083464,0.0000000,0.0000000,0.0000000,0.0640984,0.0000000,0.0000000,0.0083464,0.0000000,0.0000000,0.0000000,0.0640984,0.0000000,0.0000000,0.0083464,0.0083464,0.0000000,0.0000000,0.0021827,0.0000000,0.0000000,0.0000000,0.0083464,0.0000000,0.0000000,0.0021827,0.0000000,0.0000000,0.0000000,0.0083464,0.0000000,0.0000000,0.0021827
42.5745610,1.1000500,,-0.9018365,-0.4320343,0.0014182,0.0058976,0.0356796,0.0724063,0.1587816,,,,3.1682203,-6.6535382,-21.3250847,0.0000000,0.0000000,0.0000000,0.0220010,0.0644657,0.0000000,0.0000000,0.0083944,0.0000000,0.0000000,0.0000000,0.0644657,0.0000000,0.0000000,0.0083944,0.0000000,0.0000000,0.0000000,0.0644657,0.0000000,0.0000000,0.0083944,0.0083945,0.0000000,0.0000000,0.0021890,0.0000000,0.0000000,0.0000000,0.0083945,0.0000000,0.0000000,0.0021890,0.0000000,0.0000000,0.0000000,0.0083945,0.0000000,0.0000000,0.0021890
42.5880760,1.0501500,,-0.9018687,-0.4319644,0.0012655,0.0061443,0.0605186,-0.0083296,0.1301339,,,,3.1682203,-6.6535382,-21.3250847,0.0000000,0.0000000,0.0000000,0.0210030,0.0648183,0.0000000,0.0000000,0.0084405,0.0000000,0.0000000,0.0000000,0.0648183,0.0000000,0.0000000,0.0084405,0.0000000,0.0000000,0.0000000,0.0648183,0.0000000,0.0000000,0.0084405,0.0084405,0.0000000,0.0000000,0.0021950,0.0000000,0.0000000,0.0000000,0.0084405,0.0000000,0.0000000,0.0021950,0.0000000,0.0000000,0.0000000,0.0084405,0.0000000,0.0000000,0.0021950
42.6076440,1.0001000,,-0.9018819,-0.4319350,0.0015022,0.0062281,-0.0224064,0.0862664,0.0838276,,,,3.1682203,-6.6535382,-21.3250847,0.0000000,0.0000000,0.0000000,0.0200020,0.0651560,0.0000000,0.0000000,0.0084844,0.0000000,0.0000000,0.0000000,0.0651560,0.0000000,0.0000000,0.0084844,0.0000000,0.0000000,0.0000000,0.0651560,0.0000000,0.0000000,0.0084844,0.0084845,0.0000000,0.0000000,0.0022008,0.0000000,0.0000000,0.0000000,0.0084845,0.0000000,0.0000000,0.0022008,0.0000000,0.0000000,0.0000000,0.0084845,0.0000000,0.0000000,0.0022008
42.6287850,1.0496501,,-0.9019263,-0.4318411,0.0013192,0.0063474,0.0802961,-0.0987354,0.1178034,,,,3.1682203,-6.6535382,-21.3250847,0.0000000,0.0000000,0.0000000,0.0209930,0.0655122,0.0000000,0.0000000,0.0085307,0.0000000,0.0000000,0.0000000,0.0655122,0.0000000,0.0000000,0.0085307,0.0000000,0.0000000,0.0000000,0.0655122,0.0000000,0.0000000,0.0085307,0.0085307,0.0000000,0.0000000,0.0022068,0.0000000,0.0000000,0.0000000,0.0085307,0.0000000,0.0000000,0.0022068,0.0000000,0.0000000,0.0000000,0.0085307,0.0000000,0.0000000,0.0022068
42.6498260,1.0500000,,-0.9019015,-0.4318895,0.0014176,0.0065572,-0.0832269,-0.0033014,-0.1117984,,,,3.1682203,-6.6535382,-21.3250847,0.0000000,0.0000000,0.0000000,0.0210000,0.0658705,0.0000000,0.0000000,0.0085771,0.0000000,0.0000000,0.0000000,0.0658705,0.0000000,0.0000000,0.0085771,0.0000000,0.0000000,0.0000000,0.0658705,0.0000000,0.0000000,0.0085771,0.0085771,0.0000000,0.0000000,0.0022128,0.0000000,0.0000000,0.0000000,0.0085771,0.0000000,0.0000000,0.0022128,0.0000000,0.0000000,0.0000000,0.0085771,0.0000000,0.0000000,0.0022128
42.6671860,,1.0199300,-0.9019015,-0.4318895,0.0014176,0.0065572,,,,-0.1214438,-0.1511596,-0.0006045,3.1650867,-6.6574388,-21.3250999,-0.0004080,-0.0005079,-0.0000020,0.1019930,0.0641708,0.0000000,0.0000000,0.0083558,0.0000000,0.0000000,0.0000000,0.0641708,0.0000000,0.0000000,0.0083558,0.0000000,0.0000000,0.0000000,0.0641708,0.0000000,0.0000000,0.0083558,0.0083558,0.0000000,0.0000000,0.0021840,0.0000000,0.0000000,0.0000000,0.0083558,0.0000000,0.0000000,0.0021840,0.0000000,0.0000000,0.0000000,0.0083558,0.0000000,0.0000000,0.0021840
42.6807080,0.9999000,,-0.9019158,-0.4318646,0.0013818,0.0062216,0.0014926,0.1817371,0.0375762,,,,3.1650867,-6.6574388,-21.3250999,0.0000000,0.0000000,0.0000000,0.0199980,0.0645050,0.0000000,0.0000000,0.0083995,0.0000000,0.0000000,0.0000000,0.0645050,0.0000000,0.0000000,0.0083995,0.0000000,0.0000000,0.0000000,0.0645050,0.0000000,0.0000000,0.0083995,0.0083995,0.0000000,0.0000000,0.0021897,0.0000000,0.0000000,0.0000000,0.0083995,0.0000000,0.0000000,0.0021897,0.0000000,0.0000000,0.0000000,0.0083995,0.0000000,0.0000000,0.0021897
42.6937150,1.2006500,,-0.9019093,-0.4318780,0.0013486,0.0062459,0.0004488,-0.1165289,0.0106933,,,,3.1650867,-6.6574388,-21.3250999,0.0000000,0.0000000,0.0000000,0.0240130,0.0649084,0.0000000,0.0000000,0.0084522,0.0000000,0.0000000,0.0000000,0.0649084,0.0000000,0.0000000,0.0084522,0.0000000,0.0000000,0.0000000,0.0649084,0.0000000,0.0000000,0.0084522,0.0084522,0.0000000,0.0000000,0.0021966,0.0000000,0.0000000,0.0000000,0.0084522,0.0000000,0.0000000,0.0021966,0.0000000,0.0000000,0.0000000,0.0084522,0.0000000,0.0000000,0.0021966
42.7137320,0.9996500,,-0.9019546,-0.4317880,0.0010804,0.0059740,0.0480607,0.1161816,-0.0518128,,,,3.1650867,-6.6574388,-21.3250999,0.0000000,0.0000000,0.0000000,0.0199930,0.0652464,0.0000000,0.0000000,0.0084962,0.0000000,0.0000000,0.0000000,0.0652464,0.0000000,0.0000000,0.0084962,0.0000000,0.0000000,0.0000000,0.0652464,0.0000000,0.0000000,0.0084962,0.0084962,0.0000000,0.0000000,0.0022023,0.0000000,0.0000000,0.0000000,0.0084962,0.0000000,0.0000000,0.0022023,0.0000000,0.0000000,0.0000000,0.0084962,0.0000000,0.0000000,0.0022023
42.7340050,0.9998500,,-0.9019524,-0.4317904,0.0009858,0.0061547,0.0950982,-0.1189111,0.0065262,,,,3.1650867,-6.6574388,-21.3250999,0.0000000,0.0000000,0.0000000,0.0199970,0.0655862,0.0000000,0.0000000,0.0085402,0.0000000,0.0000000,0.0000000,0.0655862,0.0000000,0.0000000,0.0085402,0.0000000,0.0000000,0.0000000,0.0655862,0.0000000,0.0000000,0.0085402,0.0085402,0.0000000,0.0000000,0.0022080,0.0000000,0.0000000,0.0000000,0.0085402,0.0000000,0.0000000,0.0022080,0.0000000,0.0000000,0.0000000,0.0085402,0.0000000,0.0000000,0.0022080
42.7539580,1.0002000,,-0.9019688,-0.4317551,0.0011989,0.0061817,0.0180691,0.1176532,0.0015160,,,,3.1650867,-6.6574388,-21.3250999,0.0000000,0.0000000,0.0000000,0.0200040,0.0659278,0.0000000,0.0000000,0.0085845,0.0000000,0.0000000,0.0000000,0.0659278,0.0000000,0.0000000,0.0085845,0.0000000,0.0000000,0.0000000,0.0659278,0.0000000,0.0000000,0.0085845,0.0085845,0.0000000,0.0000000,0.0022137,0.0000000,0.0000000,0.0000000,0.0085845,0.0000000,0.0000000,0.0022137,0.0000000,0.0000000,0.0000000,0.0085845,0.0000000,0.0000000,0.0022137
42.7714490,,1.0200601,-0.9019688,-0.4317551,0.0011989,0.0063659,,,,-0.0988223,-0.1351325,-0.0006259,3.1625347,-6.6609287,-21.3251152,-0.0003323,-0.0004544,-0.0000021,0.1020060,0.0642253,0.0000000,0.0000000,0.0083628,0.0000000,0.0000000,0.0000000,0.0642253,0.0000000,0.0000000,0.0083628,0.0000000,0.0000000,0.0000000,0.0642253,0.0000000,0.0000000,0.0083628,0.0083628,0.0000000,0.0000000,0.0021849,0.0000000,0.0000000,0.0000000,0.0083628,0.0000000,0.0000000,0.0021849,0.0000000,0.0000000,0.0000000,0.0083628,0.0000000,0.0000000,0.0021849
42.7845760,1.0002000,,-0.9019507,-0.4317899,0.0013365,0.0063659,0.0456251,-0.1050375,0.0663937,,,,3.1625347,-6.6609287,-21.3251152,0.0000000,0.0000000,0.0000000,0.0200040,0.0645598,0.0000000,0.0000000,0.0084065,0.0000000,0.0000000,0.0000000,0.0645598,0.0000000,0.0000000,0.0084065,0.0000000,0.0000000,0.0000000,0.0645598,0.0000000,0.0000000,0.0084065,0.0084065,0.0000000,0.0000000,0.0021906,0.0000000,0.0000000,0.0000000,0.0084065,0.0000000,0.0000000,0.0021906,0.0000000,0.0000000,0.0000000,0.0084065,0.0000000,0.0000000,0.0021906
42.7980400,1.1998500,,-0.9019371,-0.4318145,0.0017330,0.0065108,0.0426185,0.1211568,0.0487761,,,,3.1625347,-6.6609287,-21.3251152,0.0000000,0.0000000,0.0000000,0.0239970,0.0649633,0.0000000,0.0000000,0.0084592,0.0000000,0.0000000,0.0000000,0.0649633,0.0000000,0.0000000,0.0084592,0.0000000,0.0000000,0.0000000,0.0649633,0.0000000,0.0000000,0.0084592,0.0084592,0.0000000,0.0000000,0.0021974,0.0000000,0.0000000,0.0000000,0.0084592,0.0000000,0.0000000,0.0021974,0.0000000,0.0000000,0.0000000,0.0084592,0.0000000,0.0000000,0.0021974
42.8191890,0.9999500,,-0.9019290,-0.4318382,0.0015554,0.0060933,0.0428089,0.0023280,0.0062911,,,,3.1625347,-6.6609287,-21.3251152,0.0000000,0.0000000,0.0000000,0.0199990,0.0653016,0.0000000,0.0000000,0.0085032,0.0000000,0.0000000,0.0000000,0.0653016,0.0000000,0.0000000,0.0085032,0.0000000,0.0000000,0.0000000,0.0653016,0.0000000,0.0000000,0.0085032,0.0085032,0.0000000,0.0000000,0.0022032,0.0000000,0.0000000,0.0000000,0.0085032,0.0000000,0.0000000,0.0022032,0.0000000,0.0000000,0.0000000,0.0085032,0.0000000,0.0000000,0.0022032
42.8380100,0.9999500,,-0.9019061,-0.4318824,0.0019012,0.0062518,-0.0669821,-0.0384707,0.0314201,,,,3.1625347,-6.6609287,-21.3251152,0.0000000,0.0000000,0.0000000,0.0199990,0.0656418,0.0000000,0.0000000,0.0085473,0.0000000,0.0000000,0.0000000,0.0656418,0.0000000,0.0000000,0.0085473,0.0000000,0.0000000,0.0000000,0.0656418,0.0000000,0.0000000,0.0085473,0.0085473,0.0000000,0.0000000,0.0022089,0.0000000,0.0000000,0.0000000,0.0085473,0.0000000,0.0000000,0.0022089,0.0000000,0.0000000,0.0000000,0.0085473,0.0000000,0.0000000,0.0022089
42.8580470,1.0002000,,-0.9019401,-0.4318164,0.0016695,0.0059630,-0.0312251,0.1222518,-0.0404728,,,,3.1625347,-6.6609287,-21.3251152,0.0000000,0.0000000,0.0000000,0.0200040,0.0659837,0.0000000,0.0000000,0.0085915,0.0000000,0.0000000,0.0000000,0.0659837,0.0000000,0.0000000,0.0085915,0.0000000,0.0000000,0.0000000,0.0659837,0.0000000,0.0000000,0.0085915,0.0085915,0.0000000,0.0000000,0.0022146,0.0000000,0.0000000,0.0000000,0.0085915,0.0000000,0.0000000,0.0022146,0.0000000,0.0000000,0.0000000,0.0085915,0.0000000,0.0000000,0.0022146
42.8740930,,1.0199499,-0.9019401,-0.4318164,0.0016695,0.0064674,,,,-0.2031460,-0.2402006,-0.0005795,3.1572843,-6.6671371,-21.3251305,-0.0006837,-0.0008084,-0.0000020,0.1019950,0.0642783,0.0000000,0.0000000,0.0083695,0.0000000,0.0000000,0.0000000,0.0642783,0.0000000,0.0000000,0.0083695,0.0000000,0.0000000,0.0000000,0.0642783,0.0000000,0.0000000,0.0083695,0.0083695,0.0000000,0.0000000,0.0021857,0.0000000,0.0000000,0.0000000,0.0083695,0.0000000,0.0000000,0.0021857,0.0000000,0.0000000,0.0000000,0.0083695,0.0000000,0.0000000,0.0021857
42.8869080,1.0000000,,-0.9018998,-0.4318932,0.0016856,0.0064674,-0.0473585,-0.0898064,-0.0520205,,,,3.1572843,-6.6671371,-21.3251305,0.0000000,0.0000000,0.0000000,0.0200000,0.0646131,0.0000000,0.0000000,0.0084133,0.0000000,0.0000000,0.0000000,0.0646131,0.0000000,0.0000000,0.0084133,0.0000000,0.0000000,0.0000000,0.0646131,0.0000000,0.0000000,0.0084133,0.0084133,0.0000000,0.0000000,0.0021914,0.0000000,0.0000000,0.0000000,0.0084133,0.0000000,0.0000000,0.0021914,0.0000000,0.0000000,0.0000000,0.0084133,0.0000000,0.0000000,0.0021914
42.8996440,1.0995500,,-0.9019182,-0.4318531,0.0015969,0.0066152,0.0150476,-0.0398602,0.0047057,,,,3.1572843,-6.6671371,-21.3251305,0.0000000,0.0000000,0.0000000,0.0219910,0.0649831,0.0000000,0.0000000,0.0084615,0.0000000,0.0000000,0.0000000,0.0649831,0.0000000,0.0000000,0.0084615,0.0000000,0.0000000,0.0000000,0.0649831,0.0000000,0.0000000,0.0084615,0.0084615,0.0000000,0.0000000,0.0021977,0.0000000,0.0000000,0.0000000,0.0084615,0.0000000,0.0000000,0.0021977,0.0000000,0.0000000,0.0000000,0.0084615,0.0000000,0.0000000,0.0021977
42.9211500,1.0499500,,-0.9018818,-0.4319260,0.0017762,0.0067751,-0.0076206,-0.2515967,0.0674926,,,,3.1572399,-6.6671033,-21.3251438,-0.0042292,0.0032020,-0.0013449,0.0209990,0.0653385,0.0000000,0.0000000,0.0085077,0.0000000,0.0000000,0.0000000,0.0653385,0.0000000,0.0000000,0.0085077,0.0000000,0.0000000,0.0000000,0.0653385,0.0000000,0.0000000,0.0085077,0.0085077,0.0000000,0.0000000,0.0022037,0.0000000,0.0000000,0.0000000,0.0085077,0.0000000,0.0000000,0.0022037,0.0000000,0.0000000,0.0000000,0.0085077,0.0000000,0.0000000,0.0022037
42.9410110,1.0000000,,-0.9019202,-0.4318493,0.0017721,0.0065421,0.0241133,0.0788983,0.0407882,,,,3.1572399,-6.6671033,-21.3251438,0.0000000,0.0000000,0.0000000,0.0200000,0.0656788,0.0000000,0.0000000,0.0085518,0.0000000,0.0000000,0.0000000,0.0656788,0.0000000,0.0000000,0.0085518,0.0000000,0.0000000,0.0000000,0.0656788,0.0000000,0.0000000,0.0085518,0.0085519,0.0000000,0.0000000,0.0022094,0.0000000,0.0000000,0.0000000,0.0085519,0.0000000,0.0000000,0.0022094,0.0000000,0.0000000,0.0000000,0.0085519,0.0000000,0.0000000,0.0022094
42.9609590,1.0005001,,-0.9018998,-0.4318944,0.0016913,0.0064108,0.0178779,-0.0516000,0.0501411,,,,3.1572399,-6.6671033,-21.3251438,0.0000000,0.0000000,0.0000000,0.0200100,0.0660210,0.0000000,0.0000000,0.0085961,0.0000000,0.0000000,0.0000000,0.0660210,0.0000000,0.0000000,0.0085961,0.0000000,0.0000000,0.0000000,0.0660210,0.0000000,0.0000000,0.0085961,0.0085961,0.0000000,0.0000000,0.0022152,0.0000000,0.0000000,0.0000000,0.0085961,0.0000000,0.0000000,0.0022152,0.0000000,0.0000000,0.0000000,0.0085961,0.0000000,0.0000000,0.0022152
42.9784510,,1.0000600,-0.9018998,-0.4318944,0.0016913,0.0064108,,,,-0.1113500,-0.1381293,-0.0004392,3.1543615,-6.6706762,-21.3251553,-0.0003748,-0.0004652,-0.0000014,0.1000060,0.0643137,0.0000000,0.0000000,0.0083738,0.0000000,0.0000000,0.0000000,0.0643137,0.0000000,0.0000000,0.0083738,0.0000000,0.0000000,0.0000000,0.0643137,0.0000000,0.0000000,0.0083738,0.0083738,0.0000000,0.0000000,0.0021862,0.0000000,0.0000000,0.0000000,0.0083738,0.0000000,0.0000000,0.0021862,0.0000000,0.0000000,0.0000000,0.0083738,0.0000000,0.0000000,0.0021862
42.9917500,1.0996500,,-0.9019123,-0.4318640,0.0019742,0.0065985,0.0236713,0.1309611,0.0411381,,,,3.1543615,-6.6706762,-21.3251553,0.0000000,0.0000000,0.0000000,0.0219930,0.0646820,0.0000000,0.0000000,0.0084220,0.0000000,0.0000000,0.0000000,0.0646820,0.0000000,0.0000000,0.0084220,0.0000000,0.0000000,0.0000000,0.0646820,0.0000000,0.0000000,0.0084220,0.0084220,0.0000000,0.0000000,0.0021925,0.0000000,0.0000000,0.0000000,0.0084220,0.0000000,0.0000000,0.0021925,0.0000000,0.0000000,0.0000000,0.0084220,0.0000000,0.0000000,0.0021925
43.0047330,1.0999000,,-0.9018942,-0.4319005,0.0018972,0.0067129,0.0349451,0.0428899,0.0058748,,,,3.1543615,-6.6706762,-21.3251553,0.0000000,0.0000000,0.0000000,0.0219980,0.0650525,0.0000000,0.0000000,0.0084703,0.0000000,0.0000000,0.0000000,0.0650525,0.0000000,0.0000000,0.0084703,0.0000000,0.0000000,0.0000000,0.0650525,0.0000000,0.0000000,0.0084703,0.0084703,0.0000000,0.0000000,0.0021988,0.0000000,0.0000000,0.0000000,0.0084703,0.0000000,0.0000000,0.0021988,0.0000000,0.0000000,0.0000000,0.0084703,0.0000000,0.0000000,0.0021988
43.0264070,0.9999500,,-0.9018982,-0.4318911,0.0020644,0.0067344,-0.0110156,0.0319201,0.0004502,,,,3.1543615,-6.6706762,-21.3251553,0.0000000,0.0000000,0.0000000,0.0199990,0.0653913,0.0000000,0.0000000,0.0085143,0.0000000,0.0000000,0.0000000,0.0653913,0.0000000,0.0000000,0.0085143,0.0000000,0.0000000,0.0000000,0.0653913,0.0000000,0.0000000,0.0085143,0.0085143,0.0000000,0.0000000,0.0022045,0.0000000,0.0000000,0.0000000,0.0085143,0.0000000,0.0000000,0.0022045,0.0000000,0.0000000,0.0000000,0.0085143,0.0000000,0.0000000,0.0022045
43.0459570,1.0500500,,-0.9019182,-0.4318537,0.0018750,0.0065065,0.0084387,-0.0889746,0.0265542,,,,3.1543615,-6.6706762,-21.3251553,0.0000000,0.0000000,0.0000000,0.0210010,0.0657490,0.0000000,0.0000000,0.0085606,0.0000000,0.0000000,0.0000000,0.0657490,0.0000000,0.0000000,0.0085606,0.0000000,0.0000000,0.0000000,0.0657490,0.0000000,0.0000000,0.0085606,0.0085606,0.0000000,0.0000000,0.0022105,0.0000000,0.0000000,0.0000000,0.0085606,0.0000000,0.0000000,0.0022105,0.0000000,0.0000000,0.0000000,0.0085606,0.0000000,0.0000000,0.0022105
43.0664550,,1.0099200,-0.9018868,-0.4319203,0.0018129,0.0064483,,,,-0.0997724,-0.1239581,-0.0003560,3.1517916,-6.6738691,-21.3251648,-0.0003346,-0.0004157,-0.0000012,0.1009920,0.0640555,0.0000000,0.0000000,0.0083402,0.0000000,0.0000000,0.0000000,0.0640555,0.0000000,0.0000000,0.0083402,0.0000000,0.0000000,0.0000000,0.0640555,0.0000000,0.0000000,0.0083402,0.0083402,0.0000000,0.0000000,0.0021818,0.0000000,0.0000000,0.0000000,0.0083402,0.0000000,0.0000000,0.0021818,0.0000000,0.0000000,0.0000000,0.0083402,0.0000000,0.0000000,0.0021818
43.0794790,1.0001501,,-0.9018868,-0.4319203,0.0018129,0.0064483,-0.0528638,-0.0560306,-0.0536556,,,,3.1517916,-6.6738691,-21.3251648,0.0000000,0.0000000,0.0000000,0.0200030,0.0643891,0.0000000,0.0000000,0.0083839,0.0000000,0.0000000,0.0000000,0.0643891,0.0000000,0.0000000,0.0083839,0.0000000,0.0000000,0.0000000,0.0643891,0.0000000,0.0000000,0.0083839,0.0083839,0.0000000,0.0000000,0.0021875,0.0000000,0.0000000,0.0000000,0.0083839,0.0000000,0.0000000,0.0021875,0.0000000,0.0000000,0.0000000,0.0083839,0.0000000,0.0000000,0.0021875
43.0929960,1.3498501,,-0.9018991,-0.4319018,0.0013878,0.0060409,-0.0006522,-0.1152879,-0.0146513,,,,3.1517916,-6.6738691,-21.3251648,0.0000000,0.0000000,0.0000000,0.0269970,0.0648418,0.0000000,0.0000000,0.0084430,0.0000000,0.0000000,0.0000000,0.0648418,0.0000000,0.0000000,0.0084430,0.0000000,0.0000000,0.0000000,0.0648418,0.0000000,0.0000000,0.0084430,0.0084430,0.0000000,0.0000000,0.0021953,0.0000000,0.0000000,0.0000000,0.0084430,0.0000000,0.0000000,0.0021953,0.0000000,0.0000000,0.0000000,0.0084430,0.0000000,0.0000000,0.0021953
43.1130270,1.0003500,,-0.9018656,-0.4319625,0.0018046,0.0065490,-0.0143108,-0.1926537,-0.0073790,,,,3.1517916,-6.6738691,-21.3251648,0.0000000,0.0000000,0.0000000,0.0200070,0.0651797,0.0000000,0.0000000,0.0084870,0.0000000,0.0000000,0.0000000,0.0651797,0.0000000,0.0000000,0.0084870,0.0000000,0.0000000,0.0000000,0.0651797,0.0000000,0.0000000,0.0084870,0.0084870,0.0000000,0.0000000,0.0022010,0.0000000,0.0000000,0.0000000,0.0084870,0.0000000,0.0000000,0.0022010,0.0000000,0.0000000,0.0000000,0.0084870,0.0000000,0.0000000,0.0022010
43.1327330,1.0001501,,-0.9019122,-0.4318671,0.0018459,0.0064344,0.0255137,0.0198078,-0.0249679,,,,3.1517916,-6.6738691,-21.3251648,0.0000000,0.0000000,0.0000000,0.0200030,0.0655192,0.0000000,0.0000000,0.0085310,0.0000000,0.0000000,0.0000000,0.0655192,0.0000000,0.0000000,0.0085310,0.0000000,0.0000000,0.0000000,0.0655192,0.0000000,0.0000000,0.0085310,0.0085310,0.0000000,0.0000000,0.0022067,0.0000000,0.0000000,0.0000000,0.0085310,0.0000000,0.0000000,0.0022067,0.0000000,0.0000000,0.0000000,0.0085310,0.0000000,0.0000000,0.0022067
43.1538140,1.0495499,,-0.9018578,-0.4319637,0.0024292,0.0072659,0.0005040,-0.1589804,0.0294396,,,,3.1517916,-6.6738691,-21.3251648,0.0000000,0.0000000,0.0000000,0.0209910,0.0658773,0.0000000,0.0000000,0.0085774,0.0000000,0.0000000,0.0000000,0.0658773,0.0000000,0.0000000,0.0085774,0.0000000,0.0000000,0.0000000,0.0658773,0.0000000,0.0000000,0.0085774,0.0085774,0.0000000,0.0000000,0.0022127,0.0000000,0.0000000,0.0000000,0.0085774,0.0000000,0.0000000,0.0022127,0.0000000,0.0000000,0.0000000,0.0085774,0.0000000,0.0000000,0.0022127
43.1714220,,1.0200900,-0.9018578,-0.4319637,0.0024292,0.0072659,,,,-0.1874100,-0.2826029,-0.0011132,3.1469553,-6.6811619,-21.3251934,-0.0006297,-0.0009495,-0.0000037,0.1020090,0.0641773,0.0000000,0.0000000,0.0083561,0.0000000,0.0000000,0.0000000,0.0641773,0.0000000,0.0000000,0.0083561,0.0000000,0.0000000,0.0000000,0.0641773,0.0000000,0.0000000,0.0083561,0.0083561,0.0000000,0.0000000,0.0021839,0.0000000,0.0000000,0.0000000,0.0083561,0.0000000,0.0000000,0.0021839,0.0000000,0.0000000,0.0000000,0.0083561,0.0000000,0.0000000,0.0021839
43.1847390,1.1004000,,-0.9018781,-0.4319264,0.0023174,0.0070323,0.0105364,0.0821385,-0.0031483,,,,3.1469553,-6.6811619,-21.3251934,0.0000000,0.0000000,0.0000000,0.0220080,0.0645451,0.0000000,0.0000000,0.0084042,0.0000000,0.0000000,0.0000000,0.0645451,0.0000000,0.0000000,0.0084042,0.0000000,0.0000000,0.0000000,0.0645451,0.0000000,0.0000000,0.0084042,0.0084042,0.0000000,0.0000000,0.0021902,0.0000000,0.0000000,0.0000000,0.0084042,0.0000000,0.0000000,0.0021902,0.0000000,0.0000000,0.0000000,0.0084042,0.0000000,0.0000000,0.0021902
43.1980000,1.0997500,,-0.9018559,-0.4319643,0.0026592,0.0074224,-0.0390967,-0.0648420,0.0381521,,,,3.1469553,-6.6811619,-21.3251934,0.0000000,0.0000000,0.0000000,0.0219950,0.0649148,0.0000000,0.0000000,0.0084524,0.0000000,0.0000000,0.0000000,0.0649148,0.0000000,0.0000000,0.0084524,0.0000000,0.0000000,0.0000000,0.0649148,0.0000000,0.0000000,0.0084524,0.0084524,0.0000000,0.0000000,0.0021965,0.0000000,0.0000000,0.0000000,0.0084524,0.0000000,0.0000000,0.0021965,0.0000000,0.0000000,0.0000000,0.0084524,0.0000000,0.0000000,0.0021965
43.2179920,1.0001501,,-0.9019138,-0.4318380,0.0029480,0.0076378,0.0136777,0.0737191,-0.0007680,,,,3.1469553,-6.6811619,-21.3251934,0.0000000,0.0000000,0.0000000,0.0200030,0.0652530,0.0000000,0.0000000,0.0084964,0.0000000,0.0000000,0.0000000,0.0652530,0.0000000,0.0000000,0.0084964,0.0000000,0.0000000,0.0000000,0.0652530,0.0000000,0.0000000,0.0084964,0.0084964,0.0000000,0.0000000,0.0022022,0.0000000,0.0000000,0.0000000,0.0084964,0.0000000,0.0000000,0.0022022,0.0000000,0.0000000,0.0000000,0.0084964,0.0000000,0.0000000,0.0022022
43.2377180,1.0000501,,-0.9019346,-0.4318033,0.0027718,0.0071931,0.0206709,0.0140401,-0.0360743,,,,3.1469553,-6.6811619,-21.3251934,0.0000000,0.0000000,0.0000000,0.0200010,0.0655929,0.0000000,0.0000000,0.0085405,0.0000000,0.0000000,0.0000000,0.0655929,0.0000000,0.0000000,0.0085405,0.0000000,0.0000000,0.0000000,0.0655929,0.0000000,0.0000000,0.0085405,0.0085405,0.0000000,0.0000000,0.0022079,0.0000000,0.0000000,0.0000000,0.0085405,0.0000000,0.0000000,0.0022079,0.0000000,0.0000000,0.0000000,0.0085405,0.0000000,0.0000000,0.0022079
