t,predict_cpu,update_cpu,quat_x,quat_y,quat_z,quat_w,accel_x,accel_y,accel_z,of_x,of_y,of_z,x_x,x_y,x_z,x_vx,x_vy,x_vz,dt,P_0,P_1,P_2,P_3,P_4,P_5,P_6,P_7,P_8,P_9,P_10,P_11,P_12,P_13,P_14,P_15,P_16,P_17,P_18,P_19,P_20,P_21,P_22,P_23,P_24,P_25,P_26,P_27,P_28,P_29,P_30,P_31,P_32,P_33,P_34,P_35
36.7426000,1.2497500,,-0.9464293,-0.3229032,0.0003696,0.0022547,0.0006912,-0.0011139,0.0073354,,,,2.3056011,-6.6617122,-18.9763584,0.0000000,0.0000000,0.0000000,0.0249950,0.0577581,0.0000000,0.0000000,0.0077138,0.0000000,0.0000000,0.0000000,0.0577581,0.0000000,0.0000000,0.0077138,0.0000000,0.0000000,0.0000000,0.0577581,0.0000000,0.0000000,0.0077138,0.0077138,0.0000000,0.0000000,0.0020558,0.0000000,0.0000000,0.0000000,0.0077138,0.0000000,0.0000000,0.0020558,0.0000000,0.0000000,0.0000000,0.0077138,0.0000000,0.0000000,0.0020558
36.7636620,1.0501001,,-0.9464293,-0.3229032,0.0003820,0.0022393,0.0000023,-0.0007629,0.0061091,,,,2.3056011,-6.6617122,-18.9763584,0.0000000,0.0000000,0.0000000,0.0210020,0.0580821,0.0000000,0.0000000,0.0077570,0.0000000,0.0000000,0.0000000,0.0580821,0.0000000,0.0000000,0.0077570,0.0000000,0.0000000,0.0000000,0.0580821,0.0000000,0.0000000,0.0077570,0.0077570,0.0000000,0.0000000,0.0020616,0.0000000,0.0000000,0.0000000,0.0077570,0.0000000,0.0000000,0.0020616,0.0000000,0.0000000,0.0000000,0.0077570,0.0000000,0.0000000,0.0020616
36.7848390,1.0500000,,-0.9464294,-0.3229032,0.0003949,0.0022106,-0.0012882,0.0020599,-0.0001193,,,,2.3056011,-6.6617122,-18.9763584,0.0000000,0.0000000,0.0000000,0.0210000,0.0584079,0.0000000,0.0000000,0.0078004,0.0000000,0.0000000,0.0000000,0.0584079,0.0000000,0.0000000,0.0078004,0.0000000,0.0000000,0.0000000,0.0584079,0.0000000,0.0000000,0.0078004,0.0078004,0.0000000,0.0000000,0.0020673,0.0000000,0.0000000,0.0000000,0.0078004,0.0000000,0.0000000,0.0020673,0.0000000,0.0000000,0.0000000,0.0078004,0.0000000,0.0000000,0.0020673
36.8050160,0.9999000,,-0.9464294,-0.3229032,0.0004056,0.0021986,-0.0019259,-0.0004272,-0.0032335,,,,2.3056011,-6.6617122,-18.9763584,0.0000000,0.0000000,0.0000000,0.0199980,0.0587199,0.0000000,0.0000000,0.0078417,0.0000000,0.0000000,0.0000000,0.0587199,0.0000000,0.0000000,0.0078417,0.0000000,0.0000000,0.0000000,0.0587199,0.0000000,0.0000000,0.0078417,0.0078418,0.0000000,0.0000000,0.0020728,0.0000000,0.0000000,0.0000000,0.0078418,0.0000000,0.0000000,0.0020728,0.0000000,0.0000000,0.0000000,0.0078418,0.0000000,0.0000000,0.0020728
36.8217870,,1.0000100,-0.9464294,-0.3229032,0.0004056,0.0022021,,,,0.0000000,0.0000000,0.0000000,2.3056011,-6.6617122,-18.9763584,0.0000000,0.0000000,0.0000000,0.1000010,0.0571651,0.0000000,0.0000000,0.0076341,0.0000000,0.0000000,0.0000000,0.0571651,0.0000000,0.0000000,0.0076341,0.0000000,0.0000000,0.0000000,0.0571651,0.0000000,0.0000000,0.0076341,0.0076341,0.0000000,0.0000000,0.0020451,0.0000000,0.0000000,0.0000000,0.0076341,0.0000000,0.0000000,0.0020451,0.0000000,0.0000000,0.0000000,0.0076341,0.0000000,0.0000000,0.0020451
36.8352890,1.0000501,,-0.9464294,-0.3229032,0.0003901,0.0022021,-0.0000932,0.0005341,-0.0001519,,,,2.3056011,-6.6617122,-18.9763584,0.0000000,0.0000000,0.0000000,0.0200010,0.0574705,0.0000000,0.0000000,0.0076751,0.0000000,0.0000000,0.0000000,0.0574705,0.0000000,0.0000000,0.0076751,0.0000000,0.0000000,0.0000000,0.0574705,0.0000000,0.0000000,0.0076751,0.0076751,0.0000000,0.0000000,0.0020506,0.0000000,0.0000000,0.0000000,0.0076751,0.0000000,0.0000000,0.0020506,0.0000000,0.0000000,0.0000000,0.0076751,0.0000000,0.0000000,0.0020506
36.8489070,1.1999500,,-0.9464294,-0.3229032,0.0004071,0.0021899,-0.0013207,0.0012512,-0.0064236,,,,2.3056011,-6.6617122,-18.9763584,0.0000000,0.0000000,0.0000000,0.0239990,0.0578388,0.0000000,0.0000000,0.0077244,0.0000000,0.0000000,0.0000000,0.0578388,0.0000000,0.0000000,0.0077244,0.0000000,0.0000000,0.0000000,0.0578388,0.0000000,0.0000000,0.0077244,0.0077244,0.0000000,0.0000000,0.0020572,0.0000000,0.0000000,0.0000000,0.0077244,0.0000000,0.0000000,0.0020572,0.0000000,0.0000000,0.0000000,0.0077244,0.0000000,0.0000000,0.0020572
36.8700910,1.0000501,,-0.9464294,-0.3229031,0.0004272,0.0022082,0.0066181,-0.0051727,0.0019152,,,,2.3056011,-6.6617122,-18.9763584,0.0000000,0.0000000,0.0000000,0.0200010,0.0581478,0.0000000,0.0000000,0.0077656,0.0000000,0.0000000,0.0000000,0.0581478,0.0000000,0.0000000,0.0077656,0.0000000,0.0000000,0.0000000,0.0581478,0.0000000,0.0000000,0.0077656,0.0077656,0.0000000,0.0000000,0.0020626,0.0000000,0.0000000,0.0000000,0.0077656,0.0000000,0.0000000,0.0020626,0.0000000,0.0000000,0.0000000,0.0077656,0.0000000,0.0000000,0.0020626
36.8888100,0.9999500,,-0.9464294,-0.3229031,0.0004331,0.0022185,0.0074060,-0.0049667,0.0019341,,,,2.3056011,-6.6617122,-18.9763584,0.0000000,0.0000000,0.0000000,0.0199990,0.0584584,0.0000000,0.0000000,0.0078069,0.0000000,0.0000000,0.0000000,0.0584584,0.0000000,0.0000000,0.0078069,0.0000000,0.0000000,0.0000000,0.0584584,0.0000000,0.0000000,0.0078069,0.0078069,0.0000000,0.0000000,0.0020681,0.0000000,0.0000000,0.0000000,0.0078069,0.0000000,0.0000000,0.0020681,0.0000000,0.0000000,0.0000000,0.0078069,0.0000000,0.0000000,0.0020681
36.9088490,1.0000000,,-0.9464294,-0.3229030,0.0004529,0.0022160,0.0051450,-0.0060921,0.0056057,,,,2.3056011,-6.6617122,-18.9763584,0.0000000,0.0000000,0.0000000,0.0200000,0.0587707,0.0000000,0.0000000,0.0078483,0.0000000,0.0000000,0.0000000,0.0587707,0.0000000,0.0000000,0.0078483,0.0000000,0.0000000,0.0000000,0.0587707,0.0000000,0.0000000,0.0078483,0.0078483,0.0000000,0.0000000,0.0020736,0.0000000,0.0000000,0.0000000,0.0078483,0.0000000,0.0000000,0.0020736,0.0000000,0.0000000,0.0000000,0.0078483,0.0000000,0.0000000,0.0020736
36.9247100,,1.0200000,-0.9464294,-0.3229030,0.0004529,0.0022160,,,,0.0000000,0.0000000,0.0000000,2.3056011,-6.6617122,-18.9763584,0.0000000,0.0000000,0.0000000,0.1020000,0.0572133,0.0000000,0.0000000,0.0076403,0.0000000,0.0000000,0.0000000,0.0572133,0.0000000,0.0000000,0.0076403,0.0000000,0.0000000,0.0000000,0.0572133,0.0000000,0.0000000,0.0076403,0.0076403,0.0000000,0.0000000,0.0020458,0.0000000,0.0000000,0.0000000,0.0076403,0.0000000,0.0000000,0.0020458,0.0000000,0.0000000,0.0000000,0.0076403,0.0000000,0.0000000,0.0020458
36.9388610,1.0003999,,-0.9464294,-0.3229030,0.0004490,0.0022221,0.0044722,-0.0017643,0.0052443,,,,2.3056011,-6.6617122,-18.9763584,0.0000000,0.0000000,0.0000000,0.0200080,0.0575190,0.0000000,0.0000000,0.0076813,0.0000000,0.0000000,0.0000000,0.0575190,0.0000000,0.0000000,0.0076813,0.0000000,0.0000000,0.0000000,0.0575190,0.0000000,0.0000000,0.0076813,0.0076813,0.0000000,0.0000000,0.0020513,0.0000000,0.0000000,0.0000000,0.0076813,0.0000000,0.0000000,0.0020513,0.0000000,0.0000000,0.0000000,0.0076813,0.0000000,0.0000000,0.0020513
36.9517990,1.1496000,,-0.9464293,-0.3229030,0.0004562,0.0022446,0.0051200,-0.0049334,0.0001807,,,,2.3056011,-6.6617122,-18.9763584,0.0000000,0.0000000,0.0000000,0.0229920,0.0578722,0.0000000,0.0000000,0.0077285,0.0000000,0.0000000,0.0000000,0.0578722,0.0000000,0.0000000,0.0077285,0.0000000,0.0000000,0.0000000,0.0578722,0.0000000,0.0000000,0.0077285,0.0077285,0.0000000,0.0000000,0.0020576,0.0000000,0.0000000,0.0000000,0.0077285,0.0000000,0.0000000,0.0020576,0.0000000,0.0000000,0.0000000,0.0077285,0.0000000,0.0000000,0.0020576
36.9716170,1.0008000,,-0.9464293,-0.3229031,0.0004428,0.0022577,0.0019954,-0.0004220,-0.0013745,,,,2.3056011,-6.6617122,-18.9763584,0.0000000,0.0000000,0.0000000,0.0200160,0.0581816,0.0000000,0.0000000,0.0077697,0.0000000,0.0000000,0.0000000,0.0581816,0.0000000,0.0000000,0.0077697,0.0000000,0.0000000,0.0000000,0.0581816,0.0000000,0.0000000,0.0077697,0.0077697,0.0000000,0.0000000,0.0020631,0.0000000,0.0000000,0.0000000,0.0077697,0.0000000,0.0000000,0.0020631,0.0000000,0.0000000,0.0000000,0.0077697,0.0000000,0.0000000,0.0020631
36.9925500,1.0493500,,-0.9464292,-0.3229031,0.0004204,0.0022730,0.0018598,0.0015972,-0.0050818,,,,2.3056011,-6.6617122,-18.9763584,0.0000000,0.0000000,0.0000000,0.0209870,0.0585077,0.0000000,0.0000000,0.0078131,0.0000000,0.0000000,0.0000000,0.0585077,0.0000000,0.0000000,0.0078131,0.0000000,0.0000000,0.0000000,0.0585077,0.0000000,0.0000000,0.0078131,0.0078131,0.0000000,0.0000000,0.0020689,0.0000000,0.0000000,0.0000000,0.0078131,0.0000000,0.0000000,0.0020689,0.0000000,0.0000000,0.0000000,0.0078131,0.0000000,0.0000000,0.0020689
37.0151050,1.0498501,,-0.9464291,-0.3229031,0.0004247,0.0023019,-0.0011224,-0.0029551,-0.0057147,,,,2.3056011,-6.6617122,-18.9763584,0.0000000,0.0000000,0.0000000,0.0209970,0.0588358,0.0000000,0.0000000,0.0078566,0.0000000,0.0000000,0.0000000,0.0588358,0.0000000,0.0000000,0.0078566,0.0000000,0.0000000,0.0000000,0.0588358,0.0000000,0.0000000,0.0078566,0.0078566,0.0000000,0.0000000,0.0020746,0.0000000,0.0000000,0.0000000,0.0078566,0.0000000,0.0000000,0.0020746,0.0000000,0.0000000,0.0000000,0.0078566,0.0000000,0.0000000,0.0020746
37.0309010,,0.9999900,-0.9464291,-0.3229031,0.0004247,0.0023123,,,,0.0000000,0.0000000,0.0000000,2.3056011,-6.6617122,-18.9763584,0.0000000,0.0000000,0.0000000,0.0999990,0.0572750,0.0000000,0.0000000,0.0076482,0.0000000,0.0000000,0.0000000,0.0572750,0.0000000,0.0000000,0.0076482,0.0000000,0.0000000,0.0000000,0.0572750,0.0000000,0.0000000,0.0076482,0.0076482,0.0000000,0.0000000,0.0020468,0.0000000,0.0000000,0.0000000,0.0076482,0.0000000,0.0000000,0.0020468,0.0000000,0.0000000,0.0000000,0.0076482,0.0000000,0.0000000,0.0020468
37.0446490,1.0001000,,-0.9464291,-0.3229031,0.0004258,0.0023123,-0.0050549,-0.0020650,-0.0033456,,,,2.3056011,-6.6617122,-18.9763584,0.0000000,0.0000000,0.0000000,0.0200020,0.0575809,0.0000000,0.0000000,0.0076892,0.0000000,0.0000000,0.0000000,0.0575809,0.0000000,0.0000000,0.0076892,0.0000000,0.0000000,0.0000000,0.0575809,0.0000000,0.0000000,0.0076892,0.0076892,0.0000000,0.0000000,0.0020523,0.0000000,0.0000000,0.0000000,0.0076892,0.0000000,0.0000000,0.0020523,0.0000000,0.0000000,0.0000000,0.0076892,0.0000000,0.0000000,0.0020523
37.0576380,1.1999000,,-0.9464291,-0.3229031,0.0004262,0.0023012,-0.0035956,0.0012792,-0.0011845,,,,2.3056011,-6.6617122,-18.9763584,0.0000000,0.0000000,0.0000000,0.0239980,0.0579500,0.0000000,0.0000000,0.0077385,0.0000000,0.0000000,0.0000000,0.0579500,0.0000000,0.0000000,0.0077385,0.0000000,0.0000000,0.0000000,0.0579500,0.0000000,0.0000000,0.0077385,0.0077385,0.0000000,0.0000000,0.0020589,0.0000000,0.0000000,0.0000000,0.0077385,0.0000000,0.0000000,0.0020589,0.0000000,0.0000000,0.0000000,0.0077385,0.0000000,0.0000000,0.0020589
37.0786740,1.0501001,,-0.9464291,-0.3229031,0.0004277,0.0023139,-0.0028735,-0.0060514,-0.0042544,,,,2.3056011,-6.6617122,-18.9763584,0.0000000,0.0000000,0.0000000,0.0210020,0.0582750,0.0000000,0.0000000,0.0077818,0.0000000,0.0000000,0.0000000,0.0582750,0.0000000,0.0000000,0.0077818,0.0000000,0.0000000,0.0000000,0.0582750,0.0000000,0.0000000,0.0077818,0.0077818,0.0000000,0.0000000,0.0020646,0.0000000,0.0000000,0.0000000,0.0077818,0.0000000,0.0000000,0.0020646,0.0000000,0.0000000,0.0000000,0.0077818,0.0000000,0.0000000,0.0020646
37.0998560,1.0500000,,-0.9464291,-0.3229031,0.0004240,0.0023177,-0.0012994,0.0027269,0.0015349,,,,2.3056011,-6.6617122,-18.9763584,0.0000000,0.0000000,0.0000000,0.0210000,0.0586019,0.0000000,0.0000000,0.0078252,0.0000000,0.0000000,0.0000000,0.0586019,0.0000000,0.0000000,0.0078252,0.0000000,0.0000000,0.0000000,0.0586019,0.0000000,0.0000000,0.0078252,0.0078252,0.0000000,0.0000000,0.0020704,0.0000000,0.0000000,0.0000000,0.0078252,0.0000000,0.0000000,0.0020704,0.0000000,0.0000000,0.0000000,0.0078252,0.0000000,0.0000000,0.0020704
37.1193890,,1.0100000,-0.9464291,-0.3229031,0.0004227,0.0023193,,,,0.0000000,0.0000000,0.0000000,2.3056011,-6.6617122,-18.9763584,0.0000000,0.0000000,0.0000000,0.1010000,0.0570532,0.0000000,0.0000000,0.0076184,0.0000000,0.0000000,0.0000000,0.0570532,0.0000000,0.0000000,0.0076184,0.0000000,0.0000000,0.0000000,0.0570532,0.0000000,0.0000000,0.0076184,0.0076184,0.0000000,0.0000000,0.0020428,0.0000000,0.0000000,0.0000000,0.0076184,0.0000000,0.0000000,0.0020428,0.0000000,0.0000000,0.0000000,0.0076184,0.0000000,0.0000000,0.0020428
37.1325390,0.9998500,,-0.9464291,-0.3229031,0.0004227,0.0023193,0.0004718,0.0032098,0.0083358,,,,2.3056011,-6.6617122,-18.9763584,0.0000000,0.0000000,0.0000000,0.0199970,0.0573579,0.0000000,0.0000000,0.0076593,0.0000000,0.0000000,0.0000000,0.0573579,0.0000000,0.0000000,0.0076593,0.0000000,0.0000000,0.0000000,0.0573579,0.0000000,0.0000000,0.0076593,0.0076593,0.0000000,0.0000000,0.0020483,0.0000000,0.0000000,0.0000000,0.0076593,0.0000000,0.0000000,0.0020483,0.0000000,0.0000000,0.0000000,0.0076593,0.0000000,0.0000000,0.0020483
37.1458400,1.3000500,,-0.9464291,-0.3229031,0.0004388,0.0023322,-0.0022818,0.0039776,0.0122246,,,,2.3056011,-6.6617122,-18.9763584,0.0000000,0.0000000,0.0000000,0.0260010,0.0577562,0.0000000,0.0000000,0.0077126,0.0000000,0.0000000,0.0000000,0.0577562,0.0000000,0.0000000,0.0077126,0.0000000,0.0000000,0.0000000,0.0577562,0.0000000,0.0000000,0.0077126,0.0077126,0.0000000,0.0000000,0.0020554,0.0000000,0.0000000,0.0000000,0.0077126,0.0000000,0.0000000,0.0020554,0.0000000,0.0000000,0.0000000,0.0077126,0.0000000,0.0000000,0.0020554
37.1669760,1.0502501,,-0.9464291,-0.3229030,0.0004472,0.0023363,-0.0017055,0.0075277,0.0097744,,,,2.3056011,-6.6617122,-18.9763584,0.0000000,0.0000000,0.0000000,0.0210050,0.0580802,0.0000000,0.0000000,0.0077559,0.0000000,0.0000000,0.0000000,0.0580802,0.0000000,0.0000000,0.0077559,0.0000000,0.0000000,0.0000000,0.0580802,0.0000000,0.0000000,0.0077559,0.0077559,0.0000000,0.0000000,0.0020611,0.0000000,0.0000000,0.0000000,0.0077559,0.0000000,0.0000000,0.0020611,0.0000000,0.0000000,0.0000000,0.0077559,0.0000000,0.0000000,0.0020611
37.1880540,1.0001000,,-0.9464290,-0.3229030,0.0004577,0.0023450,-0.0018980,0.0022380,0.0061079,,,,2.3056011,-6.6617122,-18.9763584,0.0000000,0.0000000,0.0000000,0.0200020,0.0583905,0.0000000,0.0000000,0.0077972,0.0000000,0.0000000,0.0000000,0.0583905,0.0000000,0.0000000,0.0077972,0.0000000,0.0000000,0.0000000,0.0583905,0.0000000,0.0000000,0.0077972,0.0077972,0.0000000,0.0000000,0.0020666,0.0000000,0.0000000,0.0000000,0.0077972,0.0000000,0.0000000,0.0020666,0.0000000,0.0000000,0.0000000,0.0077972,0.0000000,0.0000000,0.0020666
37.2068000,1.0000501,,-0.9464290,-0.3229030,0.0004539,0.0023355,0.0031251,0.0010274,0.0025657,,,,2.3056011,-6.6617122,-18.9763584,0.0000000,0.0000000,0.0000000,0.0200010,0.0587024,0.0000000,0.0000000,0.0078385,0.0000000,0.0000000,0.0000000,0.0587024,0.0000000,0.0000000,0.0078385,0.0000000,0.0000000,0.0000000,0.0587024,0.0000000,0.0000000,0.0078385,0.0078385,0.0000000,0.0000000,0.0020721,0.0000000,0.0000000,0.0000000,0.0078385,0.0000000,0.0000000,0.0020721,0.0000000,0.0000000,0.0000000,0.0078385,0.0000000,0.0000000,0.0020721
37.2228170,,1.0001500,-0.9464290,-0.3229030,0.0004539,0.0023355,,,,0.0000000,0.0000000,0.0000000,2.3056011,-6.6617122,-18.9763584,0.0000000,0.0000000,0.0000000,0.1000150,0.0571485,0.0000000,0.0000000,0.0076311,0.0000000,0.0000000,0.0000000,0.0571485,0.0000000,0.0000000,0.0076311,0.0000000,0.0000000,0.0000000,0.0571485,0.0000000,0.0000000,0.0076311,0.0076311,0.0000000,0.0000000,0.0020444,0.0000000,0.0000000,0.0000000,0.0076311,0.0000000,0.0000000,0.0020444,0.0000000,0.0000000,0.0000000,0.0076311,0.0000000,0.0000000,0.0020444
37.2369070,1.0000000,,-0.9464291,-0.3229030,0.0004484,0.0023239,0.0039277,0.0035807,0.0047008,,,,2.3056011,-6.6617122,-18.9763584,0.0000000,0.0000000,0.0000000,0.0200000,0.0574538,0.0000000,0.0000000,0.0076720,0.0000000,0.0000000,0.0000000,0.0574538,0.0000000,0.0000000,0.0076720,0.0000000,0.0000000,0.0000000,0.0574538,0.0000000,0.0000000,0.0076720,0.0076720,0.0000000,0.0000000,0.0020499,0.0000000,0.0000000,0.0000000,0.0076720,0.0000000,0.0000000,0.0020499,0.0000000,0.0000000,0.0000000,0.0076720,0.0000000,0.0000000,0.0020499
37.2495930,1.1496000,,-0.9464290,-0.3229031,0.0004344,0.0023448,0.0125916,0.0009969,-0.0020441,,,,2.3056011,-6.6617122,-18.9763584,0.0000000,0.0000000,0.0000000,0.0229920,0.0578066,0.0000000,0.0000000,0.0077192,0.0000000,0.0000000,0.0000000,0.0578066,0.0000000,0.0000000,0.0077192,0.0000000,0.0000000,0.0000000,0.0578066,0.0000000,0.0000000,0.0077192,0.0077192,0.0000000,0.0000000,0.0020562,0.0000000,0.0000000,0.0000000,0.0077192,0.0000000,0.0000000,0.0020562,0.0000000,0.0000000,0.0000000,0.0077192,0.0000000,0.0000000,0.0020562
37.2708150,1.0506999,,-0.9464290,-0.3229032,0.0004138,0.0023577,0.0044418,-0.0044530,0.0050815,,,,2.3056011,-6.6617122,-18.9763584,0.0000000,0.0000000,0.0000000,0.0210140,0.0581310,0.0000000,0.0000000,0.0077625,0.0000000,0.0000000,0.0000000,0.0581310,0.0000000,0.0000000,0.0077625,0.0000000,0.0000000,0.0000000,0.0581310,0.0000000,0.0000000,0.0077625,0.0077625,0.0000000,0.0000000,0.0020620,0.0000000,0.0000000,0.0000000,0.0077625,0.0000000,0.0000000,0.0020620,0.0000000,0.0000000,0.0000000,0.0077625,0.0000000,0.0000000,0.0020620
37.2917800,1.0495000,,-0.9464289,-0.3229032,0.0003819,0.0023979,0.0051888,-0.0049273,0.0059587,,,,2.3056011,-6.6617122,-18.9763584,0.0000000,0.0000000,0.0000000,0.0209900,0.0584568,0.0000000,0.0000000,0.0078058,0.0000000,0.0000000,0.0000000,0.0584568,0.0000000,0.0000000,0.0078058,0.0000000,0.0000000,0.0000000,0.0584568,0.0000000,0.0000000,0.0078058,0.0078058,0.0000000,0.0000000,0.0020677,0.0000000,0.0000000,0.0000000,0.0078058,0.0000000,0.0000000,0.0020677,0.0000000,0.0000000,0.0000000,0.0078058,0.0000000,0.0000000,0.0020677
37.3140910,1.0498501,,-0.9464288,-0.3229033,0.0003566,0.0024168,0.0018848,0.0041053,0.0029793,,,,2.3056011,-6.6617122,-18.9763584,0.0000000,0.0000000,0.0000000,0.0209970,0.0587846,0.0000000,0.0000000,0.0078493,0.0000000,0.0000000,0.0000000,0.0587846,0.0000000,0.0000000,0.0078493,0.0000000,0.0000000,0.0000000,0.0587846,0.0000000,0.0000000,0.0078493,0.0078493,0.0000000,0.0000000,0.0020735,0.0000000,0.0000000,0.0000000,0.0078493,0.0000000,0.0000000,0.0020735,0.0000000,0.0000000,0.0000000,0.0078493,0.0000000,0.0000000,0.0020735
37.3296020,,0.9999200,-0.9464288,-0.3229033,0.0003566,0.0024168,,,,0.0000000,0.0000000,0.0000000,2.3056011,-6.6617122,-18.9763584,0.0000000,0.0000000,0.0000000,0.0999920,0.0572265,0.0000000,0.0000000,0.0076412,0.0000000,0.0000000,0.0000000,0.0572265,0.0000000,0.0000000,0.0076412,0.0000000,0.0000000,0.0000000,0.0572265,0.0000000,0.0000000,0.0076412,0.0076412,0.0000000,0.0000000,0.0020457,0.0000000,0.0000000,0.0000000,0.0076412,0.0000000,0.0000000,0.0020457,0.0000000,0.0000000,0.0000000,0.0076412,0.0000000,0.0000000,0.0020457
37.3435200,1.0002501,,-0.9464288,-0.3229033,0.0003473,0.0024374,0.0007135,-0.0047833,0.0017338,,,,2.3056011,-6.6617122,-18.9763584,0.0000000,0.0000000,0.0000000,0.0200050,0.0575322,0.0000000,0.0000000,0.0076822,0.0000000,0.0000000,0.0000000,0.0575322,0.0000000,0.0000000,0.0076822,0.0000000,0.0000000,0.0000000,0.0575322,0.0000000,0.0000000,0.0076822,0.0076822,0.0000000,0.0000000,0.0020512,0.0000000,0.0000000,0.0000000,0.0076822,0.0000000,0.0000000,0.0020512,0.0000000,0.0000000,0.0000000,0.0076822,0.0000000,0.0000000,0.0020512
37.3567020,1.1997001,,-0.9464287,-0.3229033,0.0003103,0.0024556,-0.0050601,-0.0107001,0.0008669,,,,2.3056011,-6.6617122,-18.9763584,0.0000000,0.0000000,0.0000000,0.0239940,0.0579008,0.0000000,0.0000000,0.0077315,0.0000000,0.0000000,0.0000000,0.0579008,0.0000000,0.0000000,0.0077315,0.0000000,0.0000000,0.0000000,0.0579008,0.0000000,0.0000000,0.0077315,0.0077315,0.0000000,0.0000000,0.0020578,0.0000000,0.0000000,0.0000000,0.0077315,0.0000000,0.0000000,0.0020578,0.0000000,0.0000000,0.0000000,0.0077315,0.0000000,0.0000000,0.0020578
37.3778290,1.0500500,,-0.9464287,-0.3229034,0.0002975,0.0024638,-0.0091600,-0.0026721,0.0031190,,,,2.3056011,-6.6617122,-18.9763584,0.0000000,0.0000000,0.0000000,0.0210010,0.0582256,0.0000000,0.0000000,0.0077747,0.0000000,0.0000000,0.0000000,0.0582256,0.0000000,0.0000000,0.0077747,0.0000000,0.0000000,0.0000000,0.0582256,0.0000000,0.0000000,0.0077747,0.0077747,0.0000000,0.0000000,0.0020635,0.0000000,0.0000000,0.0000000,0.0077747,0.0000000,0.0000000,0.0020635,0.0000000,0.0000000,0.0000000,0.0077747,0.0000000,0.0000000,0.0020635
37.3988960,1.0500500,,-0.9464287,-0.3229034,0.0002866,0.0024535,-0.0090127,-0.0013742,0.0000947,,,,2.3056011,-6.6617122,-18.9763584,0.0000000,0.0000000,0.0000000,0.0210010,0.0585521,0.0000000,0.0000000,0.0078181,0.0000000,0.0000000,0.0000000,0.0585521,0.0000000,0.0000000,0.0078181,0.0000000,0.0000000,0.0000000,0.0585521,0.0000000,0.0000000,0.0078181,0.0078181,0.0000000,0.0000000,0.0020693,0.0000000,0.0000000,0.0000000,0.0078181,0.0000000,0.0000000,0.0020693,0.0000000,0.0000000,0.0000000,0.0078181,0.0000000,0.0000000,0.0020693
37.4177520,,0.9999200,-0.9464287,-0.3229034,0.0002827,0.0024603,,,,0.0000000,0.0000000,0.0000000,2.3056011,-6.6617122,-18.9763584,0.0000000,0.0000000,0.0000000,0.0999920,0.0570061,0.0000000,0.0000000,0.0076117,0.0000000,0.0000000,0.0000000,0.0570061,0.0000000,0.0000000,0.0076117,0.0000000,0.0000000,0.0000000,0.0570061,0.0000000,0.0000000,0.0076117,0.0076117,0.0000000,0.0000000,0.0020417,0.0000000,0.0000000,0.0000000,0.0076117,0.0000000,0.0000000,0.0020417,0.0000000,0.0000000,0.0000000,0.0076117,0.0000000,0.0000000,0.0020417
37.4315880,1.0008000,,-0.9464287,-0.3229034,0.0002827,0.0024603,-0.0055210,-0.0009465,-0.0009292,,,,2.3056011,-6.6617122,-18.9763584,0.0000000,0.0000000,0.0000000,0.0200160,0.0573108,0.0000000,0.0000000,0.0076526,0.0000000,0.0000000,0.0000000,0.0573108,0.0000000,0.0000000,0.0076526,0.0000000,0.0000000,0.0000000,0.0573108,0.0000000,0.0000000,0.0076526,0.0076526,0.0000000,0.0000000,0.0020472,0.0000000,0.0000000,0.0000000,0.0076526,0.0000000,0.0000000,0.0020472,0.0000000,0.0000000,0.0000000,0.0076526,0.0000000,0.0000000,0.0020472
37.4460560,1.2991000,,-0.9464287,-0.3229034,0.0002726,0.0024767,-0.0001360,-0.0004656,0.0022209,,,,2.3056011,-6.6617122,-18.9763584,0.0000000,0.0000000,0.0000000,0.0259820,0.0577085,0.0000000,0.0000000,0.0077059,0.0000000,0.0000000,0.0000000,0.0577085,0.0000000,0.0000000,0.0077059,0.0000000,0.0000000,0.0000000,0.0577085,0.0000000,0.0000000,0.0077059,0.0077059,0.0000000,0.0000000,0.0020543,0.0000000,0.0000000,0.0000000,0.0077059,0.0000000,0.0000000,0.0020543,0.0000000,0.0000000,0.0000000,0.0077059,0.0000000,0.0000000,0.0020543
37.4647200,1.0000000,,-0.9464286,-0.3229035,0.0002546,0.0024934,0.0044791,0.0027121,0.0018429,,,,2.3056011,-6.6617122,-18.9763584,0.0000000,0.0000000,0.0000000,0.0200000,0.0580167,0.0000000,0.0000000,0.0077470,0.0000000,0.0000000,0.0000000,0.0580167,0.0000000,0.0000000,0.0077470,0.0000000,0.0000000,0.0000000,0.0580167,0.0000000,0.0000000,0.0077470,0.0077470,0.0000000,0.0000000,0.0020598,0.0000000,0.0000000,0.0000000,0.0077470,0.0000000,0.0000000,0.0020598,0.0000000,0.0000000,0.0000000,0.0077470,0.0000000,0.0000000,0.0020598
37.4847090,1.0005500,,-0.9464285,-0.3229035,0.0002522,0.0025068,0.0138744,-0.0003224,-0.0002993,,,,2.3056011,-6.6617122,-18.9763584,0.0000000,0.0000000,0.0000000,0.0200110,0.0583268,0.0000000,0.0000000,0.0077883,0.0000000,0.0000000,0.0000000,0.0583268,0.0000000,0.0000000,0.0077883,0.0000000,0.0000000,0.0000000,0.0583268,0.0000000,0.0000000,0.0077883,0.0077883,0.0000000,0.0000000,0.0020653,0.0000000,0.0000000,0.0000000,0.0077883,0.0000000,0.0000000,0.0020653,0.0000000,0.0000000,0.0000000,0.0077883,0.0000000,0.0000000,0.0020653
37.5048460,0.9996500,,-0.9464285,-0.3229035,0.0002457,0.0025268,0.0048773,-0.0018168,-0.0003938,,,,2.3056011,-6.6617122,-18.9763584,0.0000000,0.0000000,0.0000000,0.0199930,0.0586382,0.0000000,0.0000000,0.0078296,0.0000000,0.0000000,0.0000000,0.0586382,0.0000000,0.0000000,0.0078296,0.0000000,0.0000000,0.0000000,0.0586382,0.0000000,0.0000000,0.0078296,0.0078296,0.0000000,0.0000000,0.0020708,0.0000000,0.0000000,0.0000000,0.0078296,0.0000000,0.0000000,0.0020708,0.0000000,0.0000000,0.0000000,0.0078296,0.0000000,0.0000000,0.0020708
37.5208260,,1.0001099,-0.9464285,-0.3229035,0.0002457,0.0025268,,,,0.0000000,0.0000000,0.0000000,2.3056011,-6.6617122,-18.9763584,0.0000000,0.0000000,0.0000000,0.1000110,0.0570877,0.0000000,0.0000000,0.0076226,0.0000000,0.0000000,0.0000000,0.0570877,0.0000000,0.0000000,0.0076226,0.0000000,0.0000000,0.0000000,0.0570877,0.0000000,0.0000000,0.0076226,0.0076226,0.0000000,0.0000000,0.0020431,0.0000000,0.0000000,0.0000000,0.0076226,0.0000000,0.0000000,0.0020431,0.0000000,0.0000000,0.0000000,0.0076226,0.0000000,0.0000000,0.0020431
37.5342170,1.0005500,,-0.9464285,-0.3229035,0.0002584,0.0025347,0.0028582,-0.0010991,0.0056625,,,,2.3056011,-6.6617122,-18.9763584,0.0000000,0.0000000,0.0000000,0.0200110,0.0573927,0.0000000,0.0000000,0.0076636,0.0000000,0.0000000,0.0000000,0.0573927,0.0000000,0.0000000,0.0076636,0.0000000,0.0000000,0.0000000,0.0573927,0.0000000,0.0000000,0.0076636,0.0076636,0.0000000,0.0000000,0.0020486,0.0000000,0.0000000,0.0000000,0.0076636,0.0000000,0.0000000,0.0020486,0.0000000,0.0000000,0.0000000,0.0076636,0.0000000,0.0000000,0.0020486
37.5476590,1.1492500,,-0.9464285,-0.3229034,0.0002886,0.0025249,-0.0022482,0.0021818,0.0074699,,,,2.3056011,-6.6617122,-18.9763584,0.0000000,0.0000000,0.0000000,0.0229850,0.0577450,0.0000000,0.0000000,0.0077107,0.0000000,0.0000000,0.0000000,0.0577450,0.0000000,0.0000000,0.0077107,0.0000000,0.0000000,0.0000000,0.0577450,0.0000000,0.0000000,0.0077107,0.0077107,0.0000000,0.0000000,0.0020549,0.0000000,0.0000000,0.0000000,0.0077107,0.0000000,0.0000000,0.0020549,0.0000000,0.0000000,0.0000000,0.0077107,0.0000000,0.0000000,0.0020549
37.5690960,1.0004500,,-0.9464285,-0.3229033,0.0003074,0.0025246,0.0000813,0.0004119,-0.0021244,,,,2.3056011,-6.6617122,-18.9763584,0.0000000,0.0000000,0.0000000,0.0200090,0.0580536,0.0000000,0.0000000,0.0077519,0.0000000,0.0000000,0.0000000,0.0580536,0.0000000,0.0000000,0.0077519,0.0000000,0.0000000,0.0000000,0.0580536,0.0000000,0.0000000,0.0077519,0.0077519,0.0000000,0.0000000,0.0020604,0.0000000,0.0000000,0.0000000,0.0077519,0.0000000,0.0000000,0.0020604,0.0000000,0.0000000,0.0000000,0.0077519,0.0000000,0.0000000,0.0020604
37.5878310,0.9999500,,-0.9464285,-0.3229033,0.0003110,0.0025410,0.0002467,-0.0011750,-0.0076540,,,,2.3056011,-6.6617122,-18.9763584,0.0000000,0.0000000,0.0000000,0.0199990,0.0583636,0.0000000,0.0000000,0.0077931,0.0000000,0.0000000,0.0000000,0.0583636,0.0000000,0.0000000,0.0077931,0.0000000,0.0000000,0.0000000,0.0583636,0.0000000,0.0000000,0.0077931,0.0077931,0.0000000,0.0000000,0.0020659,0.0000000,0.0000000,0.0000000,0.0077931,0.0000000,0.0000000,0.0020659,0.0000000,0.0000000,0.0000000,0.0077931,0.0000000,0.0000000,0.0020659
37.6077690,0.9999500,,-0.9464284,-0.3229033,0.0003268,0.0025724,0.0025418,-0.0031357,-0.0072450,,,,2.3056011,-6.6617122,-18.9763584,0.0000000,0.0000000,0.0000000,0.0199990,0.0586754,0.0000000,0.0000000,0.0078345,0.0000000,0.0000000,0.0000000,0.0586754,0.0000000,0.0000000,0.0078345,0.0000000,0.0000000,0.0000000,0.0586754,0.0000000,0.0000000,0.0078345,0.0078345,0.0000000,0.0000000,0.0020714,0.0000000,0.0000000,0.0000000,0.0078345,0.0000000,0.0000000,0.0020714,0.0000000,0.0000000,0.0000000,0.0078345,0.0000000,0.0000000,0.0020714
37.6238640,,1.0199100,-0.9464284,-0.3229033,0.0003268,0.0025724,,,,0.0000000,0.0000000,0.0000000,2.3056011,-6.6617122,-18.9763584,0.0000000,0.0000000,0.0000000,0.1019910,0.0571229,0.0000000,0.0000000,0.0076272,0.0000000,0.0000000,0.0000000,0.0571229,0.0000000,0.0000000,0.0076272,0.0000000,0.0000000,0.0000000,0.0571229,0.0000000,0.0000000,0.0076272,0.0076272,0.0000000,0.0000000,0.0020437,0.0000000,0.0000000,0.0000000,0.0076272,0.0000000,0.0000000,0.0020437,0.0000000,0.0000000,0.0000000,0.0076272,0.0000000,0.0000000,0.0020437
37.6374710,1.0002000,,-0.9464284,-0.3229033,0.0003145,0.0025770,0.0092742,0.0009804,-0.0050873,,,,2.3056011,-6.6617122,-18.9763584,0.0000000,0.0000000,0.0000000,0.0200040,0.0574280,0.0000000,0.0000000,0.0076682,0.0000000,0.0000000,0.0000000,0.0574280,0.0000000,0.0000000,0.0076682,0.0000000,0.0000000,0.0000000,0.0574280,0.0000000,0.0000000,0.0076682,0.0076682,0.0000000,0.0000000,0.0020492,0.0000000,0.0000000,0.0000000,0.0076682,0.0000000,0.0000000,0.0020492,0.0000000,0.0000000,0.0000000,0.0076682,0.0000000,0.0000000,0.0020492
37.6506080,1.1494499,,-0.9464284,-0.3229033,0.0003082,0.0026010,0.0026153,-0.0044918,-0.0057175,,,,2.3056011,-6.6617122,-18.9763584,0.0000000,0.0000000,0.0000000,0.0229890,0.0577806,0.0000000,0.0000000,0.0077153,0.0000000,0.0000000,0.0000000,0.0577806,0.0000000,0.0000000,0.0077153,0.0000000,0.0000000,0.0000000,0.0577806,0.0000000,0.0000000,0.0077153,0.0077153,0.0000000,0.0000000,0.0020555,0.0000000,0.0000000,0.0000000,0.0077153,0.0000000,0.0000000,0.0020555,0.0000000,0.0000000,0.0000000,0.0077153,0.0000000,0.0000000,0.0020555
37.6719750,1.0502501,,-0.9464283,-0.3229033,0.0003231,0.0026123,-0.0006836,-0.0038023,-0.0074974,,,,2.3056011,-6.6617122,-18.9763584,0.0000000,0.0000000,0.0000000,0.0210050,0.0581047,0.0000000,0.0000000,0.0077586,0.0000000,0.0000000,0.0000000,0.0581047,0.0000000,0.0000000,0.0077586,0.0000000,0.0000000,0.0000000,0.0581047,0.0000000,0.0000000,0.0077586,0.0077586,0.0000000,0.0000000,0.0020612,0.0000000,0.0000000,0.0000000,0.0077586,0.0000000,0.0000000,0.0020612,0.0000000,0.0000000,0.0000000,0.0077586,0.0000000,0.0000000,0.0020612
37.6919440,1.0001501,,-0.9464283,-0.3229032,0.0003375,0.0026077,-0.0027985,-0.0020080,-0.0013073,,,,2.3056011,-6.6617122,-18.9763584,0.0000000,0.0000000,0.0000000,0.0200030,0.0584151,0.0000000,0.0000000,0.0077998,0.0000000,0.0000000,0.0000000,0.0584151,0.0000000,0.0000000,0.0077998,0.0000000,0.0000000,0.0000000,0.0584151,0.0000000,0.0000000,0.0077998,0.0077998,0.0000000,0.0000000,0.0020667,0.0000000,0.0000000,0.0000000,0.0077998,0.0000000,0.0000000,0.0020667,0.0000000,0.0000000,0.0000000,0.0077998,0.0000000,0.0000000,0.0020667
37.7116960,1.0001501,,-0.9464283,-0.3229032,0.0003255,0.0026112,-0.0014526,0.0010865,0.0003229,,,,2.3056011,-6.6617122,-18.9763584,0.0000000,0.0000000,0.0000000,0.0200030,0.0587272,0.0000000,0.0000000,0.0078412,0.0000000,0.0000000,0.0000000,0.0587272,0.0000000,0.0000000,0.0078412,0.0000000,0.0000000,0.0000000,0.0587272,0.0000000,0.0000000,0.0078412,0.0078412,0.0000000,0.0000000,0.0020722,0.0000000,0.0000000,0.0000000,0.0078412,0.0000000,0.0000000,0.0020722,0.0000000,0.0000000,0.0000000,0.0078412,0.0000000,0.0000000,0.0020722
37.7276460,,1.0000000,-0.9464283,-0.3229032,0.0003255,0.0026112,,,,0.0000000,0.0000000,0.0000000,2.3056011,-6.6617122,-18.9763584,0.0000000,0.0000000,0.0000000,0.1000000,0.0571720,0.0000000,0.0000000,0.0076336,0.0000000,0.0000000,0.0000000,0.0571720,0.0000000,0.0000000,0.0076336,0.0000000,0.0000000,0.0000000,0.0571720,0.0000000,0.0000000,0.0076336,0.0076336,0.0000000,0.0000000,0.0020445,0.0000000,0.0000000,0.0000000,0.0076336,0.0000000,0.0000000,0.0020445,0.0000000,0.0000000,0.0000000,0.0076336,0.0000000,0.0000000,0.0020445
37.7412090,0.9996000,,-0.9464283,-0.3229032,0.0003361,0.0026135,-0.0027023,0.0002075,0.0006497,,,,2.3056011,-6.6617122,-18.9763584,0.0000000,0.0000000,0.0000000,0.0199920,0.0574772,0.0000000,0.0000000,0.0076745,0.0000000,0.0000000,0.0000000,0.0574772,0.0000000,0.0000000,0.0076745,0.0000000,0.0000000,0.0000000,0.0574772,0.0000000,0.0000000,0.0076745,0.0076745,0.0000000,0.0000000,0.0020500,0.0000000,0.0000000,0.0000000,0.0076745,0.0000000,0.0000000,0.0020500,0.0000000,0.0000000,0.0000000,0.0076745,0.0000000,0.0000000,0.0020500
37.7548580,1.1498500,,-0.9464282,-0.3229032,0.0003314,0.0026342,0.0032341,-0.0026428,-0.0008958,,,,2.3056011,-6.6617122,-18.9763584,0.0000000,0.0000000,0.0000000,0.0229970,0.0578302,0.0000000,0.0000000,0.0077217,0.0000000,0.0000000,0.0000000,0.0578302,0.0000000,0.0000000,0.0077217,0.0000000,0.0000000,0.0000000,0.0578302,0.0000000,0.0000000,0.0077217,0.0077217,0.0000000,0.0000000,0.0020563,0.0000000,0.0000000,0.0000000,0.0077217,0.0000000,0.0000000,0.0020563,0.0000000,0.0000000,0.0000000,0.0077217,0.0000000,0.0000000,0.0020563
37.7760530,1.0000501,,-0.9464282,-0.3229032,0.0003362,0.0026398,0.0010906,0.0015396,0.0024818,,,,2.3056011,-6.6617122,-18.9763584,0.0000000,0.0000000,0.0000000,0.0200010,0.0581391,0.0000000,0.0000000,0.0077629,0.0000000,0.0000000,0.0000000,0.0581391,0.0000000,0.0000000,0.0077629,0.0000000,0.0000000,0.0000000,0.0581391,0.0000000,0.0000000,0.0077629,0.0077629,0.0000000,0.0000000,0.0020618,0.0000000,0.0000000,0.0000000,0.0077629,0.0000000,0.0000000,0.0020618,0.0000000,0.0000000,0.0000000,0.0077629,0.0000000,0.0000000,0.0020618
37.7948740,0.9999500,,-0.9464282,-0.3229032,0.0003442,0.0026395,0.0036886,0.0048515,-0.0033978,,,,2.3056011,-6.6617122,-18.9763584,0.0000000,0.0000000,0.0000000,0.0199990,0.0584496,0.0000000,0.0000000,0.0078042,0.0000000,0.0000000,0.0000000,0.0584496,0.0000000,0.0000000,0.0078042,0.0000000,0.0000000,0.0000000,0.0584496,0.0000000,0.0000000,0.0078042,0.0078042,0.0000000,0.0000000,0.0020672,0.0000000,0.0000000,0.0000000,0.0078042,0.0000000,0.0000000,0.0020672,0.0000000,0.0000000,0.0000000,0.0078042,0.0000000,0.0000000,0.0020672
37.8147690,1.0000000,,-0.9464282,-0.3229032,0.0003297,0.0026500,0.0071467,0.0028530,-0.0031637,,,,2.3056011,-6.6617122,-18.9763584,0.0000000,0.0000000,0.0000000,0.0200000,0.0587617,0.0000000,0.0000000,0.0078456,0.0000000,0.0000000,0.0000000,0.0587617,0.0000000,0.0000000,0.0078456,0.0000000,0.0000000,0.0000000,0.0587617,0.0000000,0.0000000,0.0078456,0.0078456,0.0000000,0.0000000,0.0020727,0.0000000,0.0000000,0.0000000,0.0078456,0.0000000,0.0000000,0.0020727,0.0000000,0.0000000,0.0000000,0.0078456,0.0000000,0.0000000,0.0020727
37.8308710,,1.0000800,-0.9464282,-0.3229032,0.0003297,0.0026500,,,,0.0000000,0.0000000,0.0000000,2.3056011,-6.6617122,-18.9763584,0.0000000,0.0000000,0.0000000,0.1000080,0.0572048,0.0000000,0.0000000,0.0076377,0.0000000,0.0000000,0.0000000,0.0572048,0.0000000,0.0000000,0.0076377,0.0000000,0.0000000,0.0000000,0.0572048,0.0000000,0.0000000,0.0076377,0.0076377,0.0000000,0.0000000,0.0020450,0.0000000,0.0000000,0.0000000,0.0076377,0.0000000,0.0000000,0.0020450,0.0000000,0.0000000,0.0000000,0.0076377,0.0000000,0.0000000,0.0020450
37.8447090,1.0004500,,-0.9464282,-0.3229033,0.0003020,0.0026562,0.0081052,0.0015944,0.0035451,,,,2.3056011,-6.6617122,-18.9763584,0.0000000,0.0000000,0.0000000,0.0200090,0.0575104,0.0000000,0.0000000,0.0076787,0.0000000,0.0000000,0.0000000,0.0575104,0.0000000,0.0000000,0.0076787,0.0000000,0.0000000,0.0000000,0.0575104,0.0000000,0.0000000,0.0076787,0.0076787,0.0000000,0.0000000,0.0020505,0.0000000,0.0000000,0.0000000,0.0076787,0.0000000,0.0000000,0.0020505,0.0000000,0.0000000,0.0000000,0.0076787,0.0000000,0.0000000,0.0020505
37.8577400,1.1495500,,-0.9464282,-0.3229034,0.0002797,0.0026577,0.0024657,0.0019340,0.0017725,,,,2.3056011,-6.6617122,-18.9763584,0.0000000,0.0000000,0.0000000,0.0229910,0.0578635,0.0000000,0.0000000,0.0077259,0.0000000,0.0000000,0.0000000,0.0578635,0.0000000,0.0000000,0.0077259,0.0000000,0.0000000,0.0000000,0.0578635,0.0000000,0.0000000,0.0077259,0.0077259,0.0000000,0.0000000,0.0020568,0.0000000,0.0000000,0.0000000,0.0077259,0.0000000,0.0000000,0.0020568,0.0000000,0.0000000,0.0000000,0.0077259,0.0000000,0.0000000,0.0020568
37.8787850,1.0504500,,-0.9464282,-0.3229034,0.0002694,0.0026623,0.0023315,0.0021114,-0.0005786,,,,2.3056011,-6.6617122,-18.9763584,0.0000000,0.0000000,0.0000000,0.0210090,0.0581881,0.0000000,0.0000000,0.0077692,0.0000000,0.0000000,0.0000000,0.0581881,0.0000000,0.0000000,0.0077692,0.0000000,0.0000000,0.0000000,0.0581881,0.0000000,0.0000000,0.0077692,0.0077692,0.0000000,0.0000000,0.0020625,0.0000000,0.0000000,0.0000000,0.0077692,0.0000000,0.0000000,0.0020625,0.0000000,0.0000000,0.0000000,0.0077692,0.0000000,0.0000000,0.0020625
37.8989690,0.9995500,,-0.9464282,-0.3229034,0.0002702,0.0026550,-0.0016266,0.0065794,-0.0000451,,,,2.3056011,-6.6617122,-18.9763584,0.0000000,0.0000000,0.0000000,0.0199910,0.0584987,0.0000000,0.0000000,0.0078104,0.0000000,0.0000000,0.0000000,0.0584987,0.0000000,0.0000000,0.0078104,0.0000000,0.0000000,0.0000000,0.0584987,0.0000000,0.0000000,0.0078104,0.0078105,0.0000000,0.0000000,0.0020680,0.0000000,0.0000000,0.0000000,0.0078105,0.0000000,0.0000000,0.0020680,0.0000000,0.0000000,0.0000000,0.0078105,0.0000000,0.0000000,0.0020680
37.9210950,,0.9999700,-0.9464282,-0.3229034,0.0002628,0.0026510,,,,0.0000000,0.0000000,0.0000000,2.3056011,-6.6617122,-18.9763584,0.0000000,0.0000000,0.0000000,0.0999970,0.0569555,0.0000000,0.0000000,0.0076044,0.0000000,0.0000000,0.0000000,0.0569555,0.0000000,0.0000000,0.0076044,0.0000000,0.0000000,0.0000000,0.0569555,0.0000000,0.0000000,0.0076044,0.0076044,0.0000000,0.0000000,0.0020405,0.0000000,0.0000000,0.0000000,0.0076044,0.0000000,0.0000000,0.0020405,0.0000000,0.0000000,0.0000000,0.0076044,0.0000000,0.0000000,0.0020405
37.9348270,1.0001000,,-0.9464282,-0.3229034,0.0002628,0.0026510,0.0061447,0.0012450,0.0026630,,,,2.3056011,-6.6617122,-18.9763584,0.0000000,0.0000000,0.0000000,0.0200020,0.0572597,0.0000000,0.0000000,0.0076453,0.0000000,0.0000000,0.0000000,0.0572597,0.0000000,0.0000000,0.0076453,0.0000000,0.0000000,0.0000000,0.0572597,0.0000000,0.0000000,0.0076453,0.0076453,0.0000000,0.0000000,0.0020460,0.0000000,0.0000000,0.0000000,0.0076453,0.0000000,0.0000000,0.0020460,0.0000000,0.0000000,0.0000000,0.0076453,0.0000000,0.0000000,0.0020460
37.9477960,1.4499000,,-0.9464282,-0.3229034,0.0002848,0.0026643,-0.0006737,0.0005767,0.0052377,,,,2.3056011,-6.6617122,-18.9763584,0.0000000,0.0000000,0.0000000,0.0289980,0.0577031,0.0000000,0.0000000,0.0077047,0.0000000,0.0000000,0.0000000,0.0577031,0.0000000,0.0000000,0.0077047,0.0000000,0.0000000,0.0000000,0.0577031,0.0000000,0.0000000,0.0077047,0.0077047,0.0000000,0.0000000,0.0020539,0.0000000,0.0000000,0.0000000,0.0077047,0.0000000,0.0000000,0.0020539,0.0000000,0.0000000,0.0000000,0.0077047,0.0000000,0.0000000,0.0020539
37.9677570,1.0003500,,-0.9464282,-0.3229034,0.0002681,0.0026518,0.0041798,0.0043396,0.0028630,,,,2.3056011,-6.6617122,-18.9763584,0.0000000,0.0000000,0.0000000,0.0200070,0.0580114,0.0000000,0.0000000,0.0077458,0.0000000,0.0000000,0.0000000,0.0580114,0.0000000,0.0000000,0.0077458,0.0000000,0.0000000,0.0000000,0.0580114,0.0000000,0.0000000,0.0077458,0.0077458,0.0000000,0.0000000,0.0020594,0.0000000,0.0000000,0.0000000,0.0077458,0.0000000,0.0000000,0.0020594,0.0000000,0.0000000,0.0000000,0.0077458,0.0000000,0.0000000,0.0020594
37.9875770,1.0003500,,-0.9464282,-0.3229035,0.0002448,0.0026269,-0.0024420,0.0037338,0.0048495,,,,2.3056011,-6.6617122,-18.9763584,0.0000000,0.0000000,0.0000000,0.0200070,0.0583213,0.0000000,0.0000000,0.0077871,0.0000000,0.0000000,0.0000000,0.0583213,0.0000000,0.0000000,0.0077871,0.0000000,0.0000000,0.0000000,0.0583213,0.0000000,0.0000000,0.0077871,0.0077871,0.0000000,0.0000000,0.0020649,0.0000000,0.0000000,0.0000000,0.0077871,0.0000000,0.0000000,0.0020649,0.0000000,0.0000000,0.0000000,0.0077871,0.0000000,0.0000000,0.0020649
38.0077200,1.0001000,,-0.9464282,-0.3229035,0.0002371,0.0026245,0.0020596,0.0029579,-0.0039229,,,,2.3056011,-6.6617122,-18.9763584,0.0000000,0.0000000,0.0000000,0.0200020,0.0586328,0.0000000,0.0000000,0.0078284,0.0000000,0.0000000,0.0000000,0.0586328,0.0000000,0.0000000,0.0078284,0.0000000,0.0000000,0.0000000,0.0586328,0.0000000,0.0000000,0.0078284,0.0078284,0.0000000,0.0000000,0.0020704,0.0000000,0.0000000,0.0000000,0.0078284,0.0000000,0.0000000,0.0020704,0.0000000,0.0000000,0.0000000,0.0078284,0.0000000,0.0000000,0.0020704
38.0239530,,0.9999500,-0.9464282,-0.3229035,0.0002371,0.0026245,,,,0.0000000,0.0000000,0.0000000,2.3056011,-6.6617122,-18.9763584,0.0000000,0.0000000,0.0000000,0.0999950,0.0570826,0.0000000,0.0000000,0.0076215,0.0000000,0.0000000,0.0000000,0.0570826,0.0000000,0.0000000,0.0076215,0.0000000,0.0000000,0.0000000,0.0570826,0.0000000,0.0000000,0.0076215,0.0076215,0.0000000,0.0000000,0.0020428,0.0000000,0.0000000,0.0000000,0.0076215,0.0000000,0.0000000,0.0020428,0.0000000,0.0000000,0.0000000,0.0076215,0.0000000,0.0000000,0.0020428
38.0375820,1.0994000,,-0.9464282,-0.3229035,0.0002703,0.0026256,0.0031584,-0.0030148,-0.0039146,,,,2.3056011,-6.6617122,-18.9763584,0.0000000,0.0000000,0.0000000,0.0219880,0.0574178,0.0000000,0.0000000,0.0076664,0.0000000,0.0000000,0.0000000,0.0574178,0.0000000,0.0000000,0.0076664,0.0000000,0.0000000,0.0000000,0.0574178,0.0000000,0.0000000,0.0076664,0.0076664,0.0000000,0.0000000,0.0020488,0.0000000,0.0000000,0.0000000,0.0076664,0.0000000,0.0000000,0.0020488,0.0000000,0.0000000,0.0000000,0.0076664,0.0000000,0.0000000,0.0020488
38.0508390,1.0498000,,-0.9464282,-0.3229033,0.0003114,0.0026226,-0.0025941,-0.0042845,-0.0036663,,,,2.3056011,-6.6617122,-18.9763584,0.0000000,0.0000000,0.0000000,0.0209960,0.0577397,0.0000000,0.0000000,0.0077095,0.0000000,0.0000000,0.0000000,0.0577397,0.0000000,0.0000000,0.0077095,0.0000000,0.0000000,0.0000000,0.0577397,0.0000000,0.0000000,0.0077095,0.0077095,0.0000000,0.0000000,0.0020545,0.0000000,0.0000000,0.0000000,0.0077095,0.0000000,0.0000000,0.0020545,0.0000000,0.0000000,0.0000000,0.0077095,0.0000000,0.0000000,0.0020545
38.0706170,1.0006500,,-0.9464283,-0.3229033,0.0003149,0.0025967,-0.0001145,0.0003983,-0.0018331,,,,2.3056011,-6.6617122,-18.9763584,0.0000000,0.0000000,0.0000000,0.0200130,0.0580483,0.0000000,0.0000000,0.0077507,0.0000000,0.0000000,0.0000000,0.0580483,0.0000000,0.0000000,0.0077507,0.0000000,0.0000000,0.0000000,0.0580483,0.0000000,0.0000000,0.0077507,0.0077507,0.0000000,0.0000000,0.0020600,0.0000000,0.0000000,0.0000000,0.0077507,0.0000000,0.0000000,0.0020600,0.0000000,0.0000000,0.0000000,0.0077507,0.0000000,0.0000000,0.0020600
38.0915990,1.0495000,,-0.9464283,-0.3229033,0.0003205,0.0025944,-0.0003395,-0.0035850,0.0015248,,,,2.3056011,-6.6617122,-18.9763584,0.0000000,0.0000000,0.0000000,0.0209900,0.0583736,0.0000000,0.0000000,0.0077940,0.0000000,0.0000000,0.0000000,0.0583736,0.0000000,0.0000000,0.0077940,0.0000000,0.0000000,0.0000000,0.0583736,0.0000000,0.0000000,0.0077940,0.0077940,0.0000000,0.0000000,0.0020658,0.0000000,0.0000000,0.0000000,0.0077940,0.0000000,0.0000000,0.0020658,0.0000000,0.0000000,0.0000000,0.0077940,0.0000000,0.0000000,0.0020658
38.1128320,1.0500500,,-0.9464284,-0.3229033,0.0003221,0.0025803,-0.0060597,0.0009922,0.0010066,,,,2.3056011,-6.6617122,-18.9763584,0.0000000,0.0000000,0.0000000,0.0210010,0.0587010,0.0000000,0.0000000,0.0078374,0.0000000,0.0000000,0.0000000,0.0587010,0.0000000,0.0000000,0.0078374,0.0000000,0.0000000,0.0000000,0.0587010,0.0000000,0.0000000,0.0078374,0.0078374,0.0000000,0.0000000,0.0020715,0.0000000,0.0000000,0.0000000,0.0078374,0.0000000,0.0000000,0.0020715,0.0000000,0.0000000,0.0000000,0.0078374,0.0000000,0.0000000,0.0020715
38.1286090,,1.0000600,-0.9464284,-0.3229033,0.0003221,0.0025803,,,,0.0000000,0.0000000,0.0000000,2.3056011,-6.6617122,-18.9763584,0.0000000,0.0000000,0.0000000,0.1000060,0.0571472,0.0000000,0.0000000,0.0076300,0.0000000,0.0000000,0.0000000,0.0571472,0.0000000,0.0000000,0.0076300,0.0000000,0.0000000,0.0000000,0.0571472,0.0000000,0.0000000,0.0076300,0.0076300,0.0000000,0.0000000,0.0020438,0.0000000,0.0000000,0.0000000,0.0076300,0.0000000,0.0000000,0.0020438,0.0000000,0.0000000,0.0000000,0.0076300,0.0000000,0.0000000,0.0020438
38.1417500,1.0998499,,-0.9464284,-0.3229033,0.0003232,0.0025802,-0.0062342,-0.0018385,0.0039212,,,,2.3056011,-6.6617122,-18.9763584,0.0000000,0.0000000,0.0000000,0.0219970,0.0574829,0.0000000,0.0000000,0.0076750,0.0000000,0.0000000,0.0000000,0.0574829,0.0000000,0.0000000,0.0076750,0.0000000,0.0000000,0.0000000,0.0574829,0.0000000,0.0000000,0.0076750,0.0076750,0.0000000,0.0000000,0.0020499,0.0000000,0.0000000,0.0000000,0.0076750,0.0000000,0.0000000,0.0020499,0.0000000,0.0000000,0.0000000,0.0076750,0.0000000,0.0000000,0.0020499
38.1548110,0.9999500,,-0.9464283,-0.3229034,0.0002863,0.0025977,0.0045810,-0.0044669,0.0051345,,,,2.3056011,-6.6617122,-18.9763584,0.0000000,0.0000000,0.0000000,0.0199990,0.0577899,0.0000000,0.0000000,0.0077160,0.0000000,0.0000000,0.0000000,0.0577899,0.0000000,0.0000000,0.0077160,0.0000000,0.0000000,0.0000000,0.0577899,0.0000000,0.0000000,0.0077160,0.0077160,0.0000000,0.0000000,0.0020554,0.0000000,0.0000000,0.0000000,0.0077160,0.0000000,0.0000000,0.0020554,0.0000000,0.0000000,0.0000000,0.0077160,0.0000000,0.0000000,0.0020554
38.1748480,1.0005500,,-0.9464282,-0.3229035,0.0002762,0.0026211,0.0002305,0.0037785,0.0032996,,,,2.3056011,-6.6617122,-18.9763584,0.0000000,0.0000000,0.0000000,0.0200110,0.0580987,0.0000000,0.0000000,0.0077572,0.0000000,0.0000000,0.0000000,0.0580987,0.0000000,0.0000000,0.0077572,0.0000000,0.0000000,0.0000000,0.0580987,0.0000000,0.0000000,0.0077572,0.0077572,0.0000000,0.0000000,0.0020608,0.0000000,0.0000000,0.0000000,0.0077572,0.0000000,0.0000000,0.0020608,0.0000000,0.0000000,0.0000000,0.0077572,0.0000000,0.0000000,0.0020608
38.1948070,0.9998500,,-0.9464282,-0.3229035,0.0002635,0.0026262,-0.0053779,0.0039797,-0.0005474,,,,2.3056011,-6.6617122,-18.9763584,0.0000000,0.0000000,0.0000000,0.0199970,0.0584089,0.0000000,0.0000000,0.0077985,0.0000000,0.0000000,0.0000000,0.0584089,0.0000000,0.0000000,0.0077985,0.0000000,0.0000000,0.0000000,0.0584089,0.0000000,0.0000000,0.0077985,0.0077985,0.0000000,0.0000000,0.0020663,0.0000000,0.0000000,0.0000000,0.0077985,0.0000000,0.0000000,0.0020663,0.0000000,0.0000000,0.0000000,0.0077985,0.0000000,0.0000000,0.0020663
38.2145780,0.9997500,,-0.9464282,-0.3229035,0.0002457,0.0026443,0.0032620,0.0040956,0.0007028,,,,2.3056011,-6.6617122,-18.9763584,0.0000000,0.0000000,0.0000000,0.0199950,0.0587208,0.0000000,0.0000000,0.0078399,0.0000000,0.0000000,0.0000000,0.0587208,0.0000000,0.0000000,0.0078399,0.0000000,0.0000000,0.0000000,0.0587208,0.0000000,0.0000000,0.0078399,0.0078399,0.0000000,0.0000000,0.0020718,0.0000000,0.0000000,0.0000000,0.0078399,0.0000000,0.0000000,0.0020718,0.0000000,0.0000000,0.0000000,0.0078399,0.0000000,0.0000000,0.0020718
38.2308200,,1.0201501,-0.9464282,-0.3229035,0.0002457,0.0026443,,,,0.0000000,0.0000000,0.0000000,2.3056011,-6.6617122,-18.9763584,0.0000000,0.0000000,0.0000000,0.1020150,0.0571659,0.0000000,0.0000000,0.0076323,0.0000000,0.0000000,0.0000000,0.0571659,0.0000000,0.0000000,0.0076323,0.0000000,0.0000000,0.0000000,0.0571659,0.0000000,0.0000000,0.0076323,0.0076323,0.0000000,0.0000000,0.0020441,0.0000000,0.0000000,0.0000000,0.0076323,0.0000000,0.0000000,0.0020441,0.0000000,0.0000000,0.0000000,0.0076323,0.0000000,0.0000000,0.0020441
38.2444320,1.1003000,,-0.9464282,-0.3229035,0.0002369,0.0026518,0.0095350,0.0068390,-0.0018458,,,,2.3056011,-6.6617122,-18.9763584,0.0000000,0.0000000,0.0000000,0.0220060,0.0575018,0.0000000,0.0000000,0.0076773,0.0000000,0.0000000,0.0000000,0.0575018,0.0000000,0.0000000,0.0076773,0.0000000,0.0000000,0.0000000,0.0575018,0.0000000,0.0000000,0.0076773,0.0076773,0.0000000,0.0000000,0.0020501,0.0000000,0.0000000,0.0000000,0.0076773,0.0000000,0.0000000,0.0020501,0.0000000,0.0000000,0.0000000,0.0076773,0.0000000,0.0000000,0.0020501
38.2576170,1.0496000,,-0.9464281,-0.3229035,0.0002438,0.0026699,-0.0024499,0.0038544,0.0064013,,,,2.3056011,-6.6617122,-18.9763584,0.0000000,0.0000000,0.0000000,0.0209920,0.0578242,0.0000000,0.0000000,0.0077204,0.0000000,0.0000000,0.0000000,0.0578242,0.0000000,0.0000000,0.0077204,0.0000000,0.0000000,0.0000000,0.0578242,0.0000000,0.0000000,0.0077204,0.0077204,0.0000000,0.0000000,0.0020559,0.0000000,0.0000000,0.0000000,0.0077204,0.0000000,0.0000000,0.0020559,0.0000000,0.0000000,0.0000000,0.0077204,0.0000000,0.0000000,0.0020559
38.2790810,1.0003500,,-0.9464281,-0.3229035,0.0002421,0.0026759,-0.0023465,0.0064972,0.0051538,,,,2.3056011,-6.6617122,-18.9763584,0.0000000,0.0000000,0.0000000,0.0200070,0.0581331,0.0000000,0.0000000,0.0077616,0.0000000,0.0000000,0.0000000,0.0581331,0.0000000,0.0000000,0.0077616,0.0000000,0.0000000,0.0000000,0.0581331,0.0000000,0.0000000,0.0077616,0.0077616,0.0000000,0.0000000,0.0020614,0.0000000,0.0000000,0.0000000,0.0077616,0.0000000,0.0000000,0.0020614,0.0000000,0.0000000,0.0000000,0.0077616,0.0000000,0.0000000,0.0020614
38.2975900,1.0001000,,-0.9464281,-0.3229035,0.0002372,0.0026810,0.0025804,0.0029434,0.0037976,,,,2.3056011,-6.6617122,-18.9763584,0.0000000,0.0000000,0.0000000,0.0200020,0.0584436,0.0000000,0.0000000,0.0078029,0.0000000,0.0000000,0.0000000,0.0584436,0.0000000,0.0000000,0.0078029,0.0000000,0.0000000,0.0000000,0.0584436,0.0000000,0.0000000,0.0078029,0.0078029,0.0000000,0.0000000,0.0020669,0.0000000,0.0000000,0.0000000,0.0078029,0.0000000,0.0000000,0.0020669,0.0000000,0.0000000,0.0000000,0.0078029,0.0000000,0.0000000,0.0020669
38.3178710,0.9999500,,-0.9464281,-0.3229036,0.0002232,0.0026609,0.0055245,0.0052635,0.0026312,,,,2.3056011,-6.6617122,-18.9763584,0.0000000,0.0000000,0.0000000,0.0199990,0.0587557,0.0000000,0.0000000,0.0078443,0.0000000,0.0000000,0.0000000,0.0587557,0.0000000,0.0000000,0.0078443,0.0000000,0.0000000,0.0000000,0.0587557,0.0000000,0.0000000,0.0078443,0.0078443,0.0000000,0.0000000,0.0020723,0.0000000,0.0000000,0.0000000,0.0078443,0.0000000,0.0000000,0.0020723,0.0000000,0.0000000,0.0000000,0.0078443,0.0000000,0.0000000,0.0020723
38.3337620,,0.9998600,-0.9464281,-0.3229036,0.0002232,0.0026609,,,,0.0000000,0.0000000,0.0000000,2.3056011,-6.6617122,-18.9763584,0.0000000,0.0000000,0.0000000,0.0999860,0.0571990,0.0000000,0.0000000,0.0076364,0.0000000,0.0000000,0.0000000,0.0571990,0.0000000,0.0000000,0.0076364,0.0000000,0.0000000,0.0000000,0.0571990,0.0000000,0.0000000,0.0076364,0.0076364,0.0000000,0.0000000,0.0020446,0.0000000,0.0000000,0.0000000,0.0076364,0.0000000,0.0000000,0.0020446,0.0000000,0.0000000,0.0000000,0.0076364,0.0000000,0.0000000,0.0020446
38.3476630,0.9995500,,-0.9464281,-0.3229036,0.0002143,0.0026600,0.0013661,0.0010677,0.0049777,,,,2.3056011,-6.6617122,-18.9763584,0.0000000,0.0000000,0.0000000,0.0199910,0.0575043,0.0000000,0.0000000,0.0076774,0.0000000,0.0000000,0.0000000,0.0575043,0.0000000,0.0000000,0.0076774,0.0000000,0.0000000,0.0000000,0.0575043,0.0000000,0.0000000,0.0076774,0.0076774,0.0000000,0.0000000,0.0020501,0.0000000,0.0000000,0.0000000,0.0076774,0.0000000,0.0000000,0.0020501,0.0000000,0.0000000,0.0000000,0.0076774,0.0000000,0.0000000,0.0020501
38.3606710,1.1500000,,-0.9464279,-0.3229037,0.0001840,0.0026899,0.0053217,0.0036467,0.0032213,,,,2.3056011,-6.6617122,-18.9763584,0.0000000,0.0000000,0.0000000,0.0230000,0.0578575,0.0000000,0.0000000,0.0077246,0.0000000,0.0000000,0.0000000,0.0578575,0.0000000,0.0000000,0.0077246,0.0000000,0.0000000,0.0000000,0.0578575,0.0000000,0.0000000,0.0077246,0.0077246,0.0000000,0.0000000,0.0020564,0.0000000,0.0000000,0.0000000,0.0077246,0.0000000,0.0000000,0.0020564,0.0000000,0.0000000,0.0000000,0.0077246,0.0000000,0.0000000,0.0020564
38.3820180,1.0506500,,-0.9464279,-0.3229037,0.0001646,0.0027219,0.0033780,-0.0028459,0.0018548,,,,2.3056011,-6.6617122,-18.9763584,0.0000000,0.0000000,0.0000000,0.0210130,0.0581821,0.0000000,0.0000000,0.0077679,0.0000000,0.0000000,0.0000000,0.0581821,0.0000000,0.0000000,0.0077679,0.0000000,0.0000000,0.0000000,0.0581821,0.0000000,0.0000000,0.0077679,0.0077679,0.0000000,0.0000000,0.0020621,0.0000000,0.0000000,0.0000000,0.0077679,0.0000000,0.0000000,0.0020621,0.0000000,0.0000000,0.0000000,0.0077679,0.0000000,0.0000000,0.0020621
38.4019440,0.9996000,,-0.9464278,-0.3229037,0.0001543,0.0027471,0.0021544,-0.0072976,-0.0049396,,,,2.3056011,-6.6617122,-18.9763584,0.0000000,0.0000000,0.0000000,0.0199920,0.0584927,0.0000000,0.0000000,0.0078091,0.0000000,0.0000000,0.0000000,0.0584927,0.0000000,0.0000000,0.0078091,0.0000000,0.0000000,0.0000000,0.0584927,0.0000000,0.0000000,0.0078091,0.0078091,0.0000000,0.0000000,0.0020676,0.0000000,0.0000000,0.0000000,0.0078091,0.0000000,0.0000000,0.0020676,0.0000000,0.0000000,0.0000000,0.0078091,0.0000000,0.0000000,0.0020676
38.4230980,,0.9999100,-0.9464278,-0.3229038,0.0001073,0.0027615,,,,0.0000000,0.0000000,0.0000000,2.3056011,-6.6617122,-18.9763584,0.0000000,0.0000000,0.0000000,0.0999910,0.0569498,0.0000000,0.0000000,0.0076031,0.0000000,0.0000000,0.0000000,0.0569498,0.0000000,0.0000000,0.0076031,0.0000000,0.0000000,0.0000000,0.0569498,0.0000000,0.0000000,0.0076031,0.0076031,0.0000000,0.0000000,0.0020401,0.0000000,0.0000000,0.0000000,0.0076031,0.0000000,0.0000000,0.0020401,0.0000000,0.0000000,0.0000000,0.0076031,0.0000000,0.0000000,0.0020401
38.4368040,1.0001000,,-0.9464278,-0.3229038,0.0001073,0.0027615,0.0051208,-0.0014897,-0.0073602,,,,2.3056011,-6.6617122,-18.9763584,0.0000000,0.0000000,0.0000000,0.0200020,0.0572539,0.0000000,0.0000000,0.0076440,0.0000000,0.0000000,0.0000000,0.0572539,0.0000000,0.0000000,0.0076440,0.0000000,0.0000000,0.0000000,0.0572539,0.0000000,0.0000000,0.0076440,0.0076440,0.0000000,0.0000000,0.0020456,0.0000000,0.0000000,0.0000000,0.0076440,0.0000000,0.0000000,0.0020456,0.0000000,0.0000000,0.0000000,0.0076440,0.0000000,0.0000000,0.0020456
38.4498190,1.3996500,,-0.9464278,-0.3229038,0.0001022,0.0027547,0.0012787,0.0018873,-0.0034360,,,,2.3056011,-6.6617122,-18.9763584,0.0000000,0.0000000,0.0000000,0.0279930,0.0576819,0.0000000,0.0000000,0.0077013,0.0000000,0.0000000,0.0000000,0.0576819,0.0000000,0.0000000,0.0077013,0.0000000,0.0000000,0.0000000,0.0576819,0.0000000,0.0000000,0.0077013,0.0077013,0.0000000,0.0000000,0.0020533,0.0000000,0.0000000,0.0000000,0.0077013,0.0000000,0.0000000,0.0020533,0.0000000,0.0000000,0.0000000,0.0077013,0.0000000,0.0000000,0.0020533
38.4694030,1.0000501,,-0.9464278,-0.3229038,0.0001138,0.0027385,-0.0001160,0.0011191,-0.0002531,,,,2.3056011,-6.6617122,-18.9763584,0.0000000,0.0000000,0.0000000,0.0200010,0.0579900,0.0000000,0.0000000,0.0077425,0.0000000,0.0000000,0.0000000,0.0579900,0.0000000,0.0000000,0.0077425,0.0000000,0.0000000,0.0000000,0.0579900,0.0000000,0.0000000,0.0077425,0.0077425,0.0000000,0.0000000,0.0020588,0.0000000,0.0000000,0.0000000,0.0077425,0.0000000,0.0000000,0.0020588,0.0000000,0.0000000,0.0000000,0.0077425,0.0000000,0.0000000,0.0020588
38.4906430,1.0499500,,-0.9464278,-0.3229038,0.0001240,0.0027299,0.0050537,-0.0021870,0.0006058,,,,2.3056011,-6.6617122,-18.9763584,0.0000000,0.0000000,0.0000000,0.0209990,0.0583151,0.0000000,0.0000000,0.0077858,0.0000000,0.0000000,0.0000000,0.0583151,0.0000000,0.0000000,0.0077858,0.0000000,0.0000000,0.0000000,0.0583151,0.0000000,0.0000000,0.0077858,0.0077858,0.0000000,0.0000000,0.0020645,0.0000000,0.0000000,0.0000000,0.0077858,0.0000000,0.0000000,0.0020645,0.0000000,0.0000000,0.0000000,0.0077858,0.0000000,0.0000000,0.0020645
38.5130430,1.0507500,,-0.9464278,-0.3229038,0.0001316,0.0027250,0.0000778,-0.0009104,0.0042092,,,,2.3056011,-6.6617122,-18.9763584,0.0000000,0.0000000,0.0000000,0.0210150,0.0586424,0.0000000,0.0000000,0.0078292,0.0000000,0.0000000,0.0000000,0.0586424,0.0000000,0.0000000,0.0078292,0.0000000,0.0000000,0.0000000,0.0586424,0.0000000,0.0000000,0.0078292,0.0078292,0.0000000,0.0000000,0.0020703,0.0000000,0.0000000,0.0000000,0.0078292,0.0000000,0.0000000,0.0020703,0.0000000,0.0000000,0.0000000,0.0078292,0.0000000,0.0000000,0.0020703
38.5286700,,1.0200300,-0.9464278,-0.3229038,0.0001316,0.0027261,,,,0.0000000,0.0000000,0.0000000,2.3056011,-6.6617122,-18.9763584,0.0000000,0.0000000,0.0000000,0.1020030,0.0570916,0.0000000,0.0000000,0.0076222,0.0000000,0.0000000,0.0000000,0.0570916,0.0000000,0.0000000,0.0076222,0.0000000,0.0000000,0.0000000,0.0570916,0.0000000,0.0000000,0.0076222,0.0076222,0.0000000,0.0000000,0.0020427,0.0000000,0.0000000,0.0000000,0.0076222,0.0000000,0.0000000,0.0020427,0.0000000,0.0000000,0.0000000,0.0076222,0.0000000,0.0000000,0.0020427
38.5422700,0.9996000,,-0.9464278,-0.3229038,0.0001367,0.0027261,-0.0038750,-0.0027059,0.0001515,,,,2.3056011,-6.6617122,-18.9763584,0.0000000,0.0000000,0.0000000,0.0199920,0.0573964,0.0000000,0.0000000,0.0076631,0.0000000,0.0000000,0.0000000,0.0573964,0.0000000,0.0000000,0.0076631,0.0000000,0.0000000,0.0000000,0.0573964,0.0000000,0.0000000,0.0076631,0.0076631,0.0000000,0.0000000,0.0020481,0.0000000,0.0000000,0.0000000,0.0076631,0.0000000,0.0000000,0.0020481,0.0000000,0.0000000,0.0000000,0.0076631,0.0000000,0.0000000,0.0020481
38.5557320,1.1996500,,-0.9464279,-0.3229038,0.0001493,0.0027059,-0.0031353,-0.0002162,0.0037378,,,,2.3056011,-6.6617122,-18.9763584,0.0000000,0.0000000,0.0000000,0.0239930,0.0577641,0.0000000,0.0000000,0.0077123,0.0000000,0.0000000,0.0000000,0.0577641,0.0000000,0.0000000,0.0077123,0.0000000,0.0000000,0.0000000,0.0577641,0.0000000,0.0000000,0.0077123,0.0077123,0.0000000,0.0000000,0.0020547,0.0000000,0.0000000,0.0000000,0.0077123,0.0000000,0.0000000,0.0020547,0.0000000,0.0000000,0.0000000,0.0077123,0.0000000,0.0000000,0.0020547
38.5771040,1.0000501,,-0.9464280,-0.3229038,0.0001570,0.0026835,-0.0020254,0.0039355,0.0013806,,,,2.3056011,-6.6617122,-18.9763584,0.0000000,0.0000000,0.0000000,0.0200010,0.0580726,0.0000000,0.0000000,0.0077534,0.0000000,0.0000000,0.0000000,0.0580726,0.0000000,0.0000000,0.0077534,0.0000000,0.0000000,0.0000000,0.0580726,0.0000000,0.0000000,0.0077534,0.0077534,0.0000000,0.0000000,0.0020602,0.0000000,0.0000000,0.0000000,0.0077534,0.0000000,0.0000000,0.0020602,0.0000000,0.0000000,0.0000000,0.0077534,0.0000000,0.0000000,0.0020602
38.5956550,0.9999500,,-0.9464281,-0.3229038,0.0001619,0.0026647,-0.0017070,0.0037988,0.0043524,,,,2.3056011,-6.6617122,-18.9763584,0.0000000,0.0000000,0.0000000,0.0199990,0.0583827,0.0000000,0.0000000,0.0077947,0.0000000,0.0000000,0.0000000,0.0583827,0.0000000,0.0000000,0.0077947,0.0000000,0.0000000,0.0000000,0.0583827,0.0000000,0.0000000,0.0077947,0.0077947,0.0000000,0.0000000,0.0020657,0.0000000,0.0000000,0.0000000,0.0077947,0.0000000,0.0000000,0.0020657,0.0000000,0.0000000,0.0000000,0.0077947,0.0000000,0.0000000,0.0020657
38.6158530,1.0000000,,-0.9464281,-0.3229038,0.0001744,0.0026573,-0.0051870,0.0017850,0.0024204,,,,2.3056011,-6.6617122,-18.9763584,0.0000000,0.0000000,0.0000000,0.0200000,0.0586945,0.0000000,0.0000000,0.0078360,0.0000000,0.0000000,0.0000000,0.0586945,0.0000000,0.0000000,0.0078360,0.0000000,0.0000000,0.0000000,0.0586945,0.0000000,0.0000000,0.0078360,0.0078360,0.0000000,0.0000000,0.0020712,0.0000000,0.0000000,0.0000000,0.0078360,0.0000000,0.0000000,0.0020712,0.0000000,0.0000000,0.0000000,0.0078360,0.0000000,0.0000000,0.0020712
38.6318240,,1.0199900,-0.9464281,-0.3229038,0.0001744,0.0026573,,,,0.0000000,0.0000000,0.0000000,2.3056011,-6.6617122,-18.9763584,0.0000000,0.0000000,0.0000000,0.1019990,0.0571411,0.0000000,0.0000000,0.0076286,0.0000000,0.0000000,0.0000000,0.0571411,0.0000000,0.0000000,0.0076286,0.0000000,0.0000000,0.0000000,0.0571411,0.0000000,0.0000000,0.0076286,0.0076286,0.0000000,0.0000000,0.0020435,0.0000000,0.0000000,0.0000000,0.0076286,0.0000000,0.0000000,0.0020435,0.0000000,0.0000000,0.0000000,0.0076286,0.0000000,0.0000000,0.0020435
38.6457000,1.0000000,,-0.9464281,-0.3229037,0.0002013,0.0026782,-0.0066600,-0.0067293,0.0056047,,,,2.3056011,-6.6617122,-18.9763584,0.0000000,0.0000000,0.0000000,0.0200000,0.0574462,0.0000000,0.0000000,0.0076696,0.0000000,0.0000000,0.0000000,0.0574462,0.0000000,0.0000000,0.0076696,0.0000000,0.0000000,0.0000000,0.0574462,0.0000000,0.0000000,0.0076696,0.0076696,0.0000000,0.0000000,0.0020490,0.0000000,0.0000000,0.0000000,0.0076696,0.0000000,0.0000000,0.0020490,0.0000000,0.0000000,0.0000000,0.0076696,0.0000000,0.0000000,0.0020490
38.6585570,1.1500000,,-0.9464281,-0.3229037,0.0001852,0.0026716,-0.0052450,-0.0073777,0.0010934,,,,2.3056011,-6.6617122,-18.9763584,0.0000000,0.0000000,0.0000000,0.0230000,0.0577990,0.0000000,0.0000000,0.0077168,0.0000000,0.0000000,0.0000000,0.0577990,0.0000000,0.0000000,0.0077168,0.0000000,0.0000000,0.0000000,0.0577990,0.0000000,0.0000000,0.0077168,0.0077168,0.0000000,0.0000000,0.0020553,0.0000000,0.0000000,0.0000000,0.0077168,0.0000000,0.0000000,0.0020553,0.0000000,0.0000000,0.0000000,0.0077168,0.0000000,0.0000000,0.0020553
38.6811150,1.0500000,,-0.9464281,-0.3229037,0.0001732,0.0026787,-0.0045527,0.0006218,0.0003025,,,,2.3056011,-6.6617122,-18.9763584,0.0000000,0.0000000,0.0000000,0.0210000,0.0581231,0.0000000,0.0000000,0.0077600,0.0000000,0.0000000,0.0000000,0.0581231,0.0000000,0.0000000,0.0077600,0.0000000,0.0000000,0.0000000,0.0581231,0.0000000,0.0000000,0.0077600,0.0077600,0.0000000,0.0000000,0.0020610,0.0000000,0.0000000,0.0000000,0.0077600,0.0000000,0.0000000,0.0020610,0.0000000,0.0000000,0.0000000,0.0077600,0.0000000,0.0000000,0.0020610
38.6998650,1.0000000,,-0.9464281,-0.3229038,0.0001665,0.0026687,-0.0061521,-0.0002918,0.0043017,,,,2.3056011,-6.6617122,-18.9763584,0.0000000,0.0000000,0.0000000,0.0200000,0.0584335,0.0000000,0.0000000,0.0078012,0.0000000,0.0000000,0.0000000,0.0584335,0.0000000,0.0000000,0.0078012,0.0000000,0.0000000,0.0000000,0.0584335,0.0000000,0.0000000,0.0078012,0.0078012,0.0000000,0.0000000,0.0020665,0.0000000,0.0000000,0.0000000,0.0078012,0.0000000,0.0000000,0.0020665,0.0000000,0.0000000,0.0000000,0.0078012,0.0000000,0.0000000,0.0020665
38.7198480,1.0000000,,-0.9464281,-0.3229038,0.0001338,0.0026676,-0.0028624,0.0009527,-0.0022437,,,,2.3056011,-6.6617122,-18.9763584,0.0000000,0.0000000,0.0000000,0.0200000,0.0587456,0.0000000,0.0000000,0.0078426,0.0000000,0.0000000,0.0000000,0.0587456,0.0000000,0.0000000,0.0078426,0.0000000,0.0000000,0.0000000,0.0587456,0.0000000,0.0000000,0.0078426,0.0078426,0.0000000,0.0000000,0.0020720,0.0000000,0.0000000,0.0000000,0.0078426,0.0000000,0.0000000,0.0020720,0.0000000,0.0000000,0.0000000,0.0078426,0.0000000,0.0000000,0.0020720
38.7359470,,1.0200000,-0.9464281,-0.3229038,0.0001338,0.0026676,,,,0.0000000,0.0000000,0.0000000,2.3056011,-6.6617122,-18.9763584,0.0000000,0.0000000,0.0000000,0.1020000,0.0571894,0.0000000,0.0000000,0.0076349,0.0000000,0.0000000,0.0000000,0.0571894,0.0000000,0.0000000,0.0076349,0.0000000,0.0000000,0.0000000,0.0571894,0.0000000,0.0000000,0.0076349,0.0076349,0.0000000,0.0000000,0.0020443,0.0000000,0.0000000,0.0000000,0.0076349,0.0000000,0.0000000,0.0020443,0.0000000,0.0000000,0.0000000,0.0076349,0.0000000,0.0000000,0.0020443
38.7497020,1.0004500,,-0.9464281,-0.3229039,0.0001211,0.0026386,-0.0019195,0.0056720,-0.0050281,,,,2.3056011,-6.6617122,-18.9763584,0.0000000,0.0000000,0.0000000,0.0200090,0.0574950,0.0000000,0.0000000,0.0076758,0.0000000,0.0000000,0.0000000,0.0574950,0.0000000,0.0000000,0.0076758,0.0000000,0.0000000,0.0000000,0.0574950,0.0000000,0.0000000,0.0076758,0.0076758,0.0000000,0.0000000,0.0020497,0.0000000,0.0000000,0.0000000,0.0076758,0.0000000,0.0000000,0.0020497,0.0000000,0.0000000,0.0000000,0.0076758,0.0000000,0.0000000,0.0020497
38.7627160,1.1495500,,-0.9464281,-0.3229039,0.0001190,0.0026110,-0.0065597,-0.0015128,-0.0022699,,,,2.3056011,-6.6617122,-18.9763584,0.0000000,0.0000000,0.0000000,0.0229910,0.0578479,0.0000000,0.0000000,0.0077230,0.0000000,0.0000000,0.0000000,0.0578479,0.0000000,0.0000000,0.0077230,0.0000000,0.0000000,0.0000000,0.0578479,0.0000000,0.0000000,0.0077230,0.0077230,0.0000000,0.0000000,0.0020561,0.0000000,0.0000000,0.0000000,0.0077230,0.0000000,0.0000000,0.0020561,0.0000000,0.0000000,0.0000000,0.0077230,0.0000000,0.0000000,0.0020561
38.7837770,1.0503000,,-0.9464282,-0.3229039,0.0001196,0.0026066,-0.0035164,-0.0046016,0.0020389,,,,2.3056011,-6.6617122,-18.9763584,0.0000000,0.0000000,0.0000000,0.0210060,0.0581724,0.0000000,0.0000000,0.0077663,0.0000000,0.0000000,0.0000000,0.0581724,0.0000000,0.0000000,0.0077663,0.0000000,0.0000000,0.0000000,0.0581724,0.0000000,0.0000000,0.0077663,0.0077663,0.0000000,0.0000000,0.0020618,0.0000000,0.0000000,0.0000000,0.0077663,0.0000000,0.0000000,0.0020618,0.0000000,0.0000000,0.0000000,0.0077663,0.0000000,0.0000000,0.0020618
38.8038680,0.9997000,,-0.9464282,-0.3229039,0.0001373,0.0025914,-0.0073200,-0.0012708,-0.0011778,,,,2.3056011,-6.6617122,-18.9763584,0.0000000,0.0000000,0.0000000,0.0199940,0.0584829,0.0000000,0.0000000,0.0078076,0.0000000,0.0000000,0.0000000,0.0584829,0.0000000,0.0000000,0.0078076,0.0000000,0.0000000,0.0000000,0.0584829,0.0000000,0.0000000,0.0078076,0.0078076,0.0000000,0.0000000,0.0020673,0.0000000,0.0000000,0.0000000,0.0078076,0.0000000,0.0000000,0.0020673,0.0000000,0.0000000,0.0000000,0.0078076,0.0000000,0.0000000,0.0020673
38.8237830,1.0007000,,-0.9464282,-0.3229039,0.0001528,0.0026071,-0.0075205,-0.0020011,0.0023408,,,,2.3056011,-6.6617122,-18.9763584,0.0000000,0.0000000,0.0000000,0.0200140,0.0587955,0.0000000,0.0000000,0.0078490,0.0000000,0.0000000,0.0000000,0.0587955,0.0000000,0.0000000,0.0078490,0.0000000,0.0000000,0.0000000,0.0587955,0.0000000,0.0000000,0.0078490,0.0078490,0.0000000,0.0000000,0.0020728,0.0000000,0.0000000,0.0000000,0.0078490,0.0000000,0.0000000,0.0020728,0.0000000,0.0000000,0.0000000,0.0078490,0.0000000,0.0000000,0.0020728
38.8388440,,1.0200000,-0.9464282,-0.3229039,0.0001528,0.0026071,,,,0.0000000,0.0000000,0.0000000,2.3056011,-6.6617122,-18.9763584,0.0000000,0.0000000,0.0000000,0.1020000,0.0572367,0.0000000,0.0000000,0.0076409,0.0000000,0.0000000,0.0000000,0.0572367,0.0000000,0.0000000,0.0076409,0.0000000,0.0000000,0.0000000,0.0572367,0.0000000,0.0000000,0.0076409,0.0076409,0.0000000,0.0000000,0.0020450,0.0000000,0.0000000,0.0000000,0.0076409,0.0000000,0.0000000,0.0020450,0.0000000,0.0000000,0.0000000,0.0076409,0.0000000,0.0000000,0.0020450
38.8526190,0.9998500,,-0.9464282,-0.3229039,0.0001550,0.0026159,-0.0025014,0.0010518,0.0028794,,,,2.3056011,-6.6617122,-18.9763584,0.0000000,0.0000000,0.0000000,0.0199970,0.0575423,0.0000000,0.0000000,0.0076819,0.0000000,0.0000000,0.0000000,0.0575423,0.0000000,0.0000000,0.0076819,0.0000000,0.0000000,0.0000000,0.0575423,0.0000000,0.0000000,0.0076819,0.0076819,0.0000000,0.0000000,0.0020505,0.0000000,0.0000000,0.0000000,0.0076819,0.0000000,0.0000000,0.0020505,0.0000000,0.0000000,0.0000000,0.0076819,0.0000000,0.0000000,0.0020505
38.8657020,1.0994500,,-0.9464282,-0.3229039,0.0001610,0.0026148,0.0029531,-0.0010915,0.0014397,,,,2.3056011,-6.6617122,-18.9763584,0.0000000,0.0000000,0.0000000,0.0219890,0.0578801,0.0000000,0.0000000,0.0077270,0.0000000,0.0000000,0.0000000,0.0578801,0.0000000,0.0000000,0.0077270,0.0000000,0.0000000,0.0000000,0.0578801,0.0000000,0.0000000,0.0077270,0.0077270,0.0000000,0.0000000,0.0020565,0.0000000,0.0000000,0.0000000,0.0077270,0.0000000,0.0000000,0.0020565,0.0000000,0.0000000,0.0000000,0.0077270,0.0000000,0.0000000,0.0020565
38.8866360,1.0500500,,-0.9464282,-0.3229039,0.0001523,0.0026120,-0.0026433,0.0009954,0.0026730,,,,2.3056011,-6.6617122,-18.9763584,0.0000000,0.0000000,0.0000000,0.0210010,0.0582047,0.0000000,0.0000000,0.0077702,0.0000000,0.0000000,0.0000000,0.0582047,0.0000000,0.0000000,0.0077702,0.0000000,0.0000000,0.0000000,0.0582047,0.0000000,0.0000000,0.0077702,0.0077702,0.0000000,0.0000000,0.0020623,0.0000000,0.0000000,0.0000000,0.0077702,0.0000000,0.0000000,0.0020623,0.0000000,0.0000000,0.0000000,0.0077702,0.0000000,0.0000000,0.0020623
38.9091060,1.0505501,,-0.9464282,-0.3229039,0.0001366,0.0026166,-0.0008258,0.0047320,0.0010923,,,,2.3056011,-6.6617122,-18.9763584,0.0000000,0.0000000,0.0000000,0.0210110,0.0585312,0.0000000,0.0000000,0.0078136,0.0000000,0.0000000,0.0000000,0.0585312,0.0000000,0.0000000,0.0078136,0.0000000,0.0000000,0.0000000,0.0585312,0.0000000,0.0000000,0.0078136,0.0078136,0.0000000,0.0000000,0.0020680,0.0000000,0.0000000,0.0000000,0.0078136,0.0000000,0.0000000,0.0020680,0.0000000,0.0000000,0.0000000,0.0078136,0.0000000,0.0000000,0.0020680
38.9310430,,1.0000499,-0.9464281,-0.3229039,0.0001426,0.0026452,,,,0.0000000,0.0000000,0.0000000,2.3056011,-6.6617122,-18.9763584,0.0000000,0.0000000,0.0000000,0.1000050,0.0569863,0.0000000,0.0000000,0.0076074,0.0000000,0.0000000,0.0000000,0.0569863,0.0000000,0.0000000,0.0076074,0.0000000,0.0000000,0.0000000,0.0569863,0.0000000,0.0000000,0.0076074,0.0076074,0.0000000,0.0000000,0.0020405,0.0000000,0.0000000,0.0000000,0.0076074,0.0000000,0.0000000,0.0020405,0.0000000,0.0000000,0.0000000,0.0076074,0.0000000,0.0000000,0.0020405
38.9445710,1.0497501,,-0.9464281,-0.3229039,0.0001426,0.0026452,-0.0008859,-0.0006705,0.0007903,,,,2.3056011,-6.6617122,-18.9763584,0.0000000,0.0000000,0.0000000,0.0209950,0.0573057,0.0000000,0.0000000,0.0076503,0.0000000,0.0000000,0.0000000,0.0573057,0.0000000,0.0000000,0.0076503,0.0000000,0.0000000,0.0000000,0.0573057,0.0000000,0.0000000,0.0076503,0.0076503,0.0000000,0.0000000,0.0020463,0.0000000,0.0000000,0.0000000,0.0076503,0.0000000,0.0000000,0.0020463,0.0000000,0.0000000,0.0000000,0.0076503,0.0000000,0.0000000,0.0020463
38.9577920,1.4500000,,-0.9464281,-0.3229039,0.0001246,0.0026482,0.0053935,-0.0031581,-0.0057084,,,,2.3056011,-6.6617122,-18.9763584,0.0000000,0.0000000,0.0000000,0.0290000,0.0577494,0.0000000,0.0000000,0.0077097,0.0000000,0.0000000,0.0000000,0.0577494,0.0000000,0.0000000,0.0077097,0.0000000,0.0000000,0.0000000,0.0577494,0.0000000,0.0000000,0.0077097,0.0077097,0.0000000,0.0000000,0.0020542,0.0000000,0.0000000,0.0000000,0.0077097,0.0000000,0.0000000,0.0020542,0.0000000,0.0000000,0.0000000,0.0077097,0.0000000,0.0000000,0.0020542
38.9779530,1.0000501,,-0.9464281,-0.3229039,0.0001195,0.0026511,0.0056112,-0.0056150,-0.0096901,,,,2.3056011,-6.6617122,-18.9763584,0.0000000,0.0000000,0.0000000,0.0200010,0.0580578,0.0000000,0.0000000,0.0077509,0.0000000,0.0000000,0.0000000,0.0580578,0.0000000,0.0000000,0.0077509,0.0000000,0.0000000,0.0000000,0.0580578,0.0000000,0.0000000,0.0077509,0.0077509,0.0000000,0.0000000,0.0020597,0.0000000,0.0000000,0.0000000,0.0077509,0.0000000,0.0000000,0.0020597,0.0000000,0.0000000,0.0000000,0.0077509,0.0000000,0.0000000,0.0020597
38.9978760,0.9997500,,-0.9464281,-0.3229040,0.0001025,0.0026368,0.0042399,-0.0066451,-0.0058216,,,,2.3056011,-6.6617122,-18.9763584,0.0000000,0.0000000,0.0000000,0.0199950,0.0583678,0.0000000,0.0000000,0.0077921,0.0000000,0.0000000,0.0000000,0.0583678,0.0000000,0.0000000,0.0077921,0.0000000,0.0000000,0.0000000,0.0583678,0.0000000,0.0000000,0.0077921,0.0077921,0.0000000,0.0000000,0.0020652,0.0000000,0.0000000,0.0000000,0.0077921,0.0000000,0.0000000,0.0020652,0.0000000,0.0000000,0.0000000,0.0077921,0.0000000,0.0000000,0.0020652
39.0178670,1.0002999,,-0.9464281,-0.3229040,0.0000910,0.0026355,0.0003728,-0.0044593,-0.0012018,,,,2.3056011,-6.6617122,-18.9763584,0.0000000,0.0000000,0.0000000,0.0200060,0.0586796,0.0000000,0.0000000,0.0078335,0.0000000,0.0000000,0.0000000,0.0586796,0.0000000,0.0000000,0.0078335,0.0000000,0.0000000,0.0000000,0.0586796,0.0000000,0.0000000,0.0078335,0.0078335,0.0000000,0.0000000,0.0020707,0.0000000,0.0000000,0.0000000,0.0078335,0.0000000,0.0000000,0.0020707,0.0000000,0.0000000,0.0000000,0.0078335,0.0000000,0.0000000,0.0020707
39.0338530,,0.9999600,-0.9464281,-0.3229040,0.0000910,0.0026243,,,,0.0000000,0.0000000,0.0000000,2.3056011,-6.6617122,-18.9763584,0.0000000,0.0000000,0.0000000,0.0999960,0.0571269,0.0000000,0.0000000,0.0076262,0.0000000,0.0000000,0.0000000,0.0571269,0.0000000,0.0000000,0.0076262,0.0000000,0.0000000,0.0000000,0.0571269,0.0000000,0.0000000,0.0076262,0.0076262,0.0000000,0.0000000,0.0020430,0.0000000,0.0000000,0.0000000,0.0076262,0.0000000,0.0000000,0.0020430,0.0000000,0.0000000,0.0000000,0.0076262,0.0000000,0.0000000,0.0020430
39.0476870,0.9998500,,-0.9464281,-0.3229040,0.0000953,0.0026243,-0.0083738,0.0024777,0.0052585,,,,2.3056011,-6.6617122,-18.9763584,0.0000000,0.0000000,0.0000000,0.0199970,0.0574319,0.0000000,0.0000000,0.0076671,0.0000000,0.0000000,0.0000000,0.0574319,0.0000000,0.0000000,0.0076671,0.0000000,0.0000000,0.0000000,0.0574319,0.0000000,0.0000000,0.0076671,0.0076671,0.0000000,0.0000000,0.0020485,0.0000000,0.0000000,0.0000000,0.0076671,0.0000000,0.0000000,0.0020485,0.0000000,0.0000000,0.0000000,0.0076671,0.0000000,0.0000000,0.0020485
39.0606690,1.1497000,,-0.9464280,-0.3229040,0.0000938,0.0026531,-0.0020354,-0.0000963,0.0043382,,,,2.3056011,-6.6617122,-18.9763584,0.0000000,0.0000000,0.0000000,0.0229940,0.0577845,0.0000000,0.0000000,0.0077143,0.0000000,0.0000000,0.0000000,0.0577845,0.0000000,0.0000000,0.0077143,0.0000000,0.0000000,0.0000000,0.0577845,0.0000000,0.0000000,0.0077143,0.0077143,0.0000000,0.0000000,0.0020548,0.0000000,0.0000000,0.0000000,0.0077143,0.0000000,0.0000000,0.0020548,0.0000000,0.0000000,0.0000000,0.0077143,0.0000000,0.0000000,0.0020548
39.0833120,1.0508000,,-0.9464280,-0.3229039,0.0001135,0.0026581,-0.0037032,-0.0038323,0.0024132,,,,2.3056011,-6.6617122,-18.9763584,0.0000000,0.0000000,0.0000000,0.0210160,0.0581087,0.0000000,0.0000000,0.0077575,0.0000000,0.0000000,0.0000000,0.0581087,0.0000000,0.0000000,0.0077575,0.0000000,0.0000000,0.0000000,0.0581087,0.0000000,0.0000000,0.0077575,0.0077575,0.0000000,0.0000000,0.0020605,0.0000000,0.0000000,0.0000000,0.0077575,0.0000000,0.0000000,0.0020605,0.0000000,0.0000000,0.0000000,0.0077575,0.0000000,0.0000000,0.0020605
39.1019090,0.9994000,,-0.9464281,-0.3229039,0.0001288,0.0026410,-0.0071998,-0.0006039,0.0034039,,,,2.3056011,-6.6617122,-18.9763584,0.0000000,0.0000000,0.0000000,0.0199880,0.0584188,0.0000000,0.0000000,0.0077987,0.0000000,0.0000000,0.0000000,0.0584188,0.0000000,0.0000000,0.0077987,0.0000000,0.0000000,0.0000000,0.0584188,0.0000000,0.0000000,0.0077987,0.0077987,0.0000000,0.0000000,0.0020660,0.0000000,0.0000000,0.0000000,0.0077987,0.0000000,0.0000000,0.0020660,0.0000000,0.0000000,0.0000000,0.0077987,0.0000000,0.0000000,0.0020660
39.1219710,0.9998500,,-0.9464281,-0.3229039,0.0001314,0.0026266,-0.0055302,0.0007509,0.0070730,,,,2.3056011,-6.6617122,-18.9763584,0.0000000,0.0000000,0.0000000,0.0199970,0.0587307,0.0000000,0.0000000,0.0078401,0.0000000,0.0000000,0.0000000,0.0587307,0.0000000,0.0000000,0.0078401,0.0000000,0.0000000,0.0000000,0.0587307,0.0000000,0.0000000,0.0078401,0.0078401,0.0000000,0.0000000,0.0020715,0.0000000,0.0000000,0.0000000,0.0078401,0.0000000,0.0000000,0.0020715,0.0000000,0.0000000,0.0000000,0.0078401,0.0000000,0.0000000,0.0020715
39.1403020,,1.0200000,-0.9464281,-0.3229039,0.0001314,0.0026477,,,,0.0000000,0.0000000,0.0000000,2.3056011,-6.6617122,-18.9763584,0.0000000,0.0000000,0.0000000,0.1020000,0.0571754,0.0000000,0.0000000,0.0076325,0.0000000,0.0000000,0.0000000,0.0571754,0.0000000,0.0000000,0.0076325,0.0000000,0.0000000,0.0000000,0.0571754,0.0000000,0.0000000,0.0076325,0.0076325,0.0000000,0.0000000,0.0020438,0.0000000,0.0000000,0.0000000,0.0076325,0.0000000,0.0000000,0.0020438,0.0000000,0.0000000,0.0000000,0.0076325,0.0000000,0.0000000,0.0020438
39.1536040,1.0007499,,-0.9464281,-0.3229039,0.0001528,0.0026477,0.0009352,-0.0019210,0.0054896,,,,2.3056011,-6.6617122,-18.9763584,0.0000000,0.0000000,0.0000000,0.0200150,0.0574809,0.0000000,0.0000000,0.0076734,0.0000000,0.0000000,0.0000000,0.0574809,0.0000000,0.0000000,0.0076734,0.0000000,0.0000000,0.0000000,0.0574809,0.0000000,0.0000000,0.0076734,0.0076734,0.0000000,0.0000000,0.0020493,0.0000000,0.0000000,0.0000000,0.0076734,0.0000000,0.0000000,0.0020493,0.0000000,0.0000000,0.0000000,0.0076734,0.0000000,0.0000000,0.0020493
39.1667150,1.2493001,,-0.9464280,-0.3229039,0.0001328,0.0026607,0.0060599,0.0013665,0.0039655,,,,2.3056011,-6.6617122,-18.9763584,0.0000000,0.0000000,0.0000000,0.0249860,0.0578644,0.0000000,0.0000000,0.0077247,0.0000000,0.0000000,0.0000000,0.0578644,0.0000000,0.0000000,0.0077247,0.0000000,0.0000000,0.0000000,0.0578644,0.0000000,0.0000000,0.0077247,0.0077247,0.0000000,0.0000000,0.0020561,0.0000000,0.0000000,0.0000000,0.0077247,0.0000000,0.0000000,0.0020561,0.0000000,0.0000000,0.0000000,0.0077247,0.0000000,0.0000000,0.0020561
39.1879540,1.0505501,,-0.9464279,-0.3229040,0.0000989,0.0026631,0.0015041,0.0046963,0.0051566,,,,2.3056011,-6.6617122,-18.9763584,0.0000000,0.0000000,0.0000000,0.0210110,0.0581890,0.0000000,0.0000000,0.0077680,0.0000000,0.0000000,0.0000000,0.0581890,0.0000000,0.0000000,0.0077680,0.0000000,0.0000000,0.0000000,0.0581890,0.0000000,0.0000000,0.0077680,0.0077680,0.0000000,0.0000000,0.0020619,0.0000000,0.0000000,0.0000000,0.0077680,0.0000000,0.0000000,0.0020619,0.0000000,0.0000000,0.0000000,0.0077680,0.0000000,0.0000000,0.0020619
39.2078350,0.9993500,,-0.9464279,-0.3229040,0.0001029,0.0026658,-0.0051302,0.0056440,0.0011135,,,,2.3056011,-6.6617122,-18.9763584,0.0000000,0.0000000,0.0000000,0.0199870,0.0584995,0.0000000,0.0000000,0.0078092,0.0000000,0.0000000,0.0000000,0.0584995,0.0000000,0.0000000,0.0078092,0.0000000,0.0000000,0.0000000,0.0584995,0.0000000,0.0000000,0.0078092,0.0078092,0.0000000,0.0000000,0.0020674,0.0000000,0.0000000,0.0000000,0.0078092,0.0000000,0.0000000,0.0020674,0.0000000,0.0000000,0.0000000,0.0078092,0.0000000,0.0000000,0.0020674
39.2278410,1.0000501,,-0.9464279,-0.3229040,0.0001009,0.0026647,-0.0023515,0.0080634,0.0017774,,,,2.3056011,-6.6617122,-18.9763584,0.0000000,0.0000000,0.0000000,0.0200010,0.0588119,0.0000000,0.0000000,0.0078506,0.0000000,0.0000000,0.0000000,0.0588119,0.0000000,0.0000000,0.0078506,0.0000000,0.0000000,0.0000000,0.0588119,0.0000000,0.0000000,0.0078506,0.0078506,0.0000000,0.0000000,0.0020729,0.0000000,0.0000000,0.0000000,0.0078506,0.0000000,0.0000000,0.0020729,0.0000000,0.0000000,0.0000000,0.0078506,0.0000000,0.0000000,0.0020729
39.2438430,,0.9999900,-0.9464279,-0.3229040,0.0001009,0.0026506,,,,0.0000000,0.0000000,0.0000000,2.3056011,-6.6617122,-18.9763584,0.0000000,0.0000000,0.0000000,0.0999990,0.0572523,0.0000000,0.0000000,0.0076425,0.0000000,0.0000000,0.0000000,0.0572523,0.0000000,0.0000000,0.0076425,0.0000000,0.0000000,0.0000000,0.0572523,0.0000000,0.0000000,0.0076425,0.0076425,0.0000000,0.0000000,0.0020451,0.0000000,0.0000000,0.0000000,0.0076425,0.0000000,0.0000000,0.0020451,0.0000000,0.0000000,0.0000000,0.0076425,0.0000000,0.0000000,0.0020451
39.2577300,1.0003500,,-0.9464279,-0.3229041,0.0000836,0.0026506,-0.0017174,0.0048404,0.0040625,,,,2.3056011,-6.6617122,-18.9763584,0.0000000,0.0000000,0.0000000,0.0200070,0.0575581,0.0000000,0.0000000,0.0076834,0.0000000,0.0000000,0.0000000,0.0575581,0.0000000,0.0000000,0.0076834,0.0000000,0.0000000,0.0000000,0.0575581,0.0000000,0.0000000,0.0076834,0.0076834,0.0000000,0.0000000,0.0020506,0.0000000,0.0000000,0.0000000,0.0076834,0.0000000,0.0000000,0.0020506,0.0000000,0.0000000,0.0000000,0.0076834,0.0000000,0.0000000,0.0020506
39.2706130,1.1496000,,-0.9464279,-0.3229040,0.0000895,0.0026881,-0.0028652,-0.0008223,0.0032520,,,,2.3056011,-6.6617122,-18.9763584,0.0000000,0.0000000,0.0000000,0.0229920,0.0579114,0.0000000,0.0000000,0.0077306,0.0000000,0.0000000,0.0000000,0.0579114,0.0000000,0.0000000,0.0077306,0.0000000,0.0000000,0.0000000,0.0579114,0.0000000,0.0000000,0.0077306,0.0077306,0.0000000,0.0000000,0.0020569,0.0000000,0.0000000,0.0000000,0.0077306,0.0000000,0.0000000,0.0020569,0.0000000,0.0000000,0.0000000,0.0077306,0.0000000,0.0000000,0.0020569
39.2932900,1.0508000,,-0.9464278,-0.3229040,0.0000872,0.0026963,0.0048616,0.0034036,0.0033350,,,,2.3056011,-6.6617122,-18.9763584,0.0000000,0.0000000,0.0000000,0.0210160,0.0582363,0.0000000,0.0000000,0.0077739,0.0000000,0.0000000,0.0000000,0.0582363,0.0000000,0.0000000,0.0077739,0.0000000,0.0000000,0.0000000,0.0582363,0.0000000,0.0000000,0.0077739,0.0077739,0.0000000,0.0000000,0.0020626,0.0000000,0.0000000,0.0000000,0.0077739,0.0000000,0.0000000,0.0020626,0.0000000,0.0000000,0.0000000,0.0077739,0.0000000,0.0000000,0.0020626
39.3118420,0.9994500,,-0.9464278,-0.3229041,0.0000870,0.0026893,0.0018968,0.0050053,0.0072827,,,,2.3056011,-6.6617122,-18.9763584,0.0000000,0.0000000,0.0000000,0.0199890,0.0585471,0.0000000,0.0000000,0.0078152,0.0000000,0.0000000,0.0000000,0.0585471,0.0000000,0.0000000,0.0078152,0.0000000,0.0000000,0.0000000,0.0585471,0.0000000,0.0000000,0.0078152,0.0078152,0.0000000,0.0000000,0.0020681,0.0000000,0.0000000,0.0000000,0.0078152,0.0000000,0.0000000,0.0020681,0.0000000,0.0000000,0.0000000,0.0078152,0.0000000,0.0000000,0.0020681
39.3331350,,0.9999800,-0.9464278,-0.3229041,0.0000822,0.0026910,,,,0.0000000,0.0000000,0.0000000,2.3056011,-6.6617122,-18.9763584,0.0000000,0.0000000,0.0000000,0.0999980,0.0570013,0.0000000,0.0000000,0.0076089,0.0000000,0.0000000,0.0000000,0.0570013,0.0000000,0.0000000,0.0076089,0.0000000,0.0000000,0.0000000,0.0570013,0.0000000,0.0000000,0.0076089,0.0076089,0.0000000,0.0000000,0.0020406,0.0000000,0.0000000,0.0000000,0.0076089,0.0000000,0.0000000,0.0020406,0.0000000,0.0000000,0.0000000,0.0076089,0.0000000,0.0000000,0.0020406
39.3467270,1.0000000,,-0.9464278,-0.3229041,0.0000822,0.0026910,0.0045495,0.0009310,0.0021765,,,,2.3056011,-6.6617122,-18.9763584,0.0000000,0.0000000,0.0000000,0.0200000,0.0573057,0.0000000,0.0000000,0.0076497,0.0000000,0.0000000,0.0000000,0.0573057,0.0000000,0.0000000,0.0076497,0.0000000,0.0000000,0.0000000,0.0573057,0.0000000,0.0000000,0.0076497,0.0076497,0.0000000,0.0000000,0.0020460,0.0000000,0.0000000,0.0000000,0.0076497,0.0000000,0.0000000,0.0020460,0.0000000,0.0000000,0.0000000,0.0076497,0.0000000,0.0000000,0.0020460
39.3596830,1.3997500,,-0.9464278,-0.3229041,0.0000653,0.0026909,0.0048763,0.0049821,0.0003558,,,,2.3056011,-6.6617122,-18.9763584,0.0000000,0.0000000,0.0000000,0.0279950,0.0577340,0.0000000,0.0000000,0.0077071,0.0000000,0.0000000,0.0000000,0.0577340,0.0000000,0.0000000,0.0077071,0.0000000,0.0000000,0.0000000,0.0577340,0.0000000,0.0000000,0.0077071,0.0077071,0.0000000,0.0000000,0.0020537,0.0000000,0.0000000,0.0000000,0.0077071,0.0000000,0.0000000,0.0020537,0.0000000,0.0000000,0.0000000,0.0077071,0.0000000,0.0000000,0.0020537
39.3810430,1.0001000,,-0.9464278,-0.3229041,0.0000440,0.0027115,0.0054899,-0.0037040,-0.0025076,,,,2.3056011,-6.6617122,-18.9763584,0.0000000,0.0000000,0.0000000,0.0200020,0.0580423,0.0000000,0.0000000,0.0077482,0.0000000,0.0000000,0.0000000,0.0580423,0.0000000,0.0000000,0.0077482,0.0000000,0.0000000,0.0000000,0.0580423,0.0000000,0.0000000,0.0077482,0.0077482,0.0000000,0.0000000,0.0020592,0.0000000,0.0000000,0.0000000,0.0077482,0.0000000,0.0000000,0.0020592,0.0000000,0.0000000,0.0000000,0.0077482,0.0000000,0.0000000,0.0020592
39.3998310,0.9999000,,-0.9464278,-0.3229041,0.0000405,0.0027128,-0.0017564,0.0000019,-0.0010097,,,,2.3056011,-6.6617122,-18.9763584,0.0000000,0.0000000,0.0000000,0.0199980,0.0583522,0.0000000,0.0000000,0.0077895,0.0000000,0.0000000,0.0000000,0.0583522,0.0000000,0.0000000,0.0077895,0.0000000,0.0000000,0.0000000,0.0583522,0.0000000,0.0000000,0.0077895,0.0077895,0.0000000,0.0000000,0.0020647,0.0000000,0.0000000,0.0000000,0.0077895,0.0000000,0.0000000,0.0020647,0.0000000,0.0000000,0.0000000,0.0077895,0.0000000,0.0000000,0.0020647
39.4198450,1.0001000,,-0.9464277,-0.3229041,0.0000368,0.0027260,0.0051109,-0.0008077,-0.0002607,,,,2.3056011,-6.6617122,-18.9763584,0.0000000,0.0000000,0.0000000,0.0200020,0.0586638,0.0000000,0.0000000,0.0078308,0.0000000,0.0000000,0.0000000,0.0586638,0.0000000,0.0000000,0.0078308,0.0000000,0.0000000,0.0000000,0.0586638,0.0000000,0.0000000,0.0078308,0.0078308,0.0000000,0.0000000,0.0020702,0.0000000,0.0000000,0.0000000,0.0078308,0.0000000,0.0000000,0.0020702,0.0000000,0.0000000,0.0000000,0.0078308,0.0000000,0.0000000,0.0020702
39.4359310,,1.0001400,-0.9464277,-0.3229041,0.0000368,0.0027260,,,,0.0000000,0.0000000,0.0000000,2.3056011,-6.6617122,-18.9763584,0.0000000,0.0000000,0.0000000,0.1000140,0.0571119,0.0000000,0.0000000,0.0076237,0.0000000,0.0000000,0.0000000,0.0571119,0.0000000,0.0000000,0.0076237,0.0000000,0.0000000,0.0000000,0.0571119,0.0000000,0.0000000,0.0076237,0.0076237,0.0000000,0.0000000,0.0020425,0.0000000,0.0000000,0.0000000,0.0076237,0.0000000,0.0000000,0.0020425,0.0000000,0.0000000,0.0000000,0.0076237,0.0000000,0.0000000,0.0020425
39.4506660,1.0004500,,-0.9464278,-0.3229041,0.0000588,0.0027214,-0.0006794,-0.0046382,0.0045083,,,,2.3056011,-6.6617122,-18.9763584,0.0000000,0.0000000,0.0000000,0.0200090,0.0574170,0.0000000,0.0000000,0.0076646,0.0000000,0.0000000,0.0000000,0.0574170,0.0000000,0.0000000,0.0076646,0.0000000,0.0000000,0.0000000,0.0574170,0.0000000,0.0000000,0.0076646,0.0076646,0.0000000,0.0000000,0.0020480,0.0000000,0.0000000,0.0000000,0.0076646,0.0000000,0.0000000,0.0020480,0.0000000,0.0000000,0.0000000,0.0076646,0.0000000,0.0000000,0.0020480
39.4637630,1.1994500,,-0.9464278,-0.3229041,0.0000614,0.0026967,0.0017889,0.0019457,0.0098225,,,,2.3056011,-6.6617122,-18.9763584,0.0000000,0.0000000,0.0000000,0.0239890,0.0577848,0.0000000,0.0000000,0.0077138,0.0000000,0.0000000,0.0000000,0.0577848,0.0000000,0.0000000,0.0077138,0.0000000,0.0000000,0.0000000,0.0577848,0.0000000,0.0000000,0.0077138,0.0077138,0.0000000,0.0000000,0.0020546,0.0000000,0.0000000,0.0000000,0.0077138,0.0000000,0.0000000,0.0020546,0.0000000,0.0000000,0.0000000,0.0077138,0.0000000,0.0000000,0.0020546
39.4850310,1.0501001,,-0.9464279,-0.3229041,0.0000631,0.0026505,-0.0033017,0.0100518,0.0071085,,,,2.3056011,-6.6617122,-18.9763584,0.0000000,0.0000000,0.0000000,0.0210020,0.0581088,0.0000000,0.0000000,0.0077570,0.0000000,0.0000000,0.0000000,0.0581088,0.0000000,0.0000000,0.0077570,0.0000000,0.0000000,0.0000000,0.0581088,0.0000000,0.0000000,0.0077570,0.0077570,0.0000000,0.0000000,0.0020603,0.0000000,0.0000000,0.0000000,0.0077570,0.0000000,0.0000000,0.0020603,0.0000000,0.0000000,0.0000000,0.0077570,0.0000000,0.0000000,0.0020603
39.5048240,0.9999000,,-0.9464279,-0.3229041,0.0000675,0.0026467,-0.0021849,0.0070630,0.0020894,,,,2.3056011,-6.6617122,-18.9763584,0.0000000,0.0000000,0.0000000,0.0199980,0.0584190,0.0000000,0.0000000,0.0077982,0.0000000,0.0000000,0.0000000,0.0584190,0.0000000,0.0000000,0.0077982,0.0000000,0.0000000,0.0000000,0.0584190,0.0000000,0.0000000,0.0077982,0.0077982,0.0000000,0.0000000,0.0020658,0.0000000,0.0000000,0.0000000,0.0077982,0.0000000,0.0000000,0.0020658,0.0000000,0.0000000,0.0000000,0.0077982,0.0000000,0.0000000,0.0020658
39.5248940,1.0001000,,-0.9464279,-0.3229041,0.0000657,0.0026521,0.0022645,0.0050955,0.0059275,,,,2.3056011,-6.6617122,-18.9763584,0.0000000,0.0000000,0.0000000,0.0200020,0.0587310,0.0000000,0.0000000,0.0078396,0.0000000,0.0000000,0.0000000,0.0587310,0.0000000,0.0000000,0.0078396,0.0000000,0.0000000,0.0000000,0.0587310,0.0000000,0.0000000,0.0078396,0.0078396,0.0000000,0.0000000,0.0020713,0.0000000,0.0000000,0.0000000,0.0078396,0.0000000,0.0000000,0.0020713,0.0000000,0.0000000,0.0000000,0.0078396,0.0000000,0.0000000,0.0020713
39.5409320,,1.0198900,-0.9464279,-0.3229041,0.0000657,0.0026366,,,,0.0000000,0.0000000,0.0000000,2.3056011,-6.6617122,-18.9763584,0.0000000,0.0000000,0.0000000,0.1019890,0.0571756,0.0000000,0.0000000,0.0076320,0.0000000,0.0000000,0.0000000,0.0571756,0.0000000,0.0000000,0.0076320,0.0000000,0.0000000,0.0000000,0.0571756,0.0000000,0.0000000,0.0076320,0.0076320,0.0000000,0.0000000,0.0020436,0.0000000,0.0000000,0.0000000,0.0076320,0.0000000,0.0000000,0.0020436,0.0000000,0.0000000,0.0000000,0.0076320,0.0000000,0.0000000,0.0020436
39.5556650,1.0003500,,-0.9464280,-0.3229041,0.0000713,0.0026366,-0.0052536,0.0096965,0.0014989,,,,2.3056011,-6.6617122,-18.9763584,0.0000000,0.0000000,0.0000000,0.0200070,0.0574810,0.0000000,0.0000000,0.0076729,0.0000000,0.0000000,0.0000000,0.0574810,0.0000000,0.0000000,0.0076729,0.0000000,0.0000000,0.0000000,0.0574810,0.0000000,0.0000000,0.0076729,0.0076729,0.0000000,0.0000000,0.0020491,0.0000000,0.0000000,0.0000000,0.0076729,0.0000000,0.0000000,0.0020491,0.0000000,0.0000000,0.0000000,0.0076729,0.0000000,0.0000000,0.0020491
39.5688000,1.1995500,,-0.9464279,-0.3229042,0.0000416,0.0026344,0.0028893,0.0014913,-0.0009595,,,,2.3056011,-6.6617122,-18.9763584,0.0000000,0.0000000,0.0000000,0.0239910,0.0578492,0.0000000,0.0000000,0.0077222,0.0000000,0.0000000,0.0000000,0.0578492,0.0000000,0.0000000,0.0077222,0.0000000,0.0000000,0.0000000,0.0578492,0.0000000,0.0000000,0.0077222,0.0077222,0.0000000,0.0000000,0.0020557,0.0000000,0.0000000,0.0000000,0.0077222,0.0000000,0.0000000,0.0020557,0.0000000,0.0000000,0.0000000,0.0077222,0.0000000,0.0000000,0.0020557
39.5900260,1.0501001,,-0.9464279,-0.3229043,0.0000207,0.0026267,0.0071972,0.0017604,0.0044030,,,,2.3056011,-6.6617122,-18.9763584,0.0000000,0.0000000,0.0000000,0.0210020,0.0581735,0.0000000,0.0000000,0.0077654,0.0000000,0.0000000,0.0000000,0.0581735,0.0000000,0.0000000,0.0077654,0.0000000,0.0000000,0.0000000,0.0581735,0.0000000,0.0000000,0.0077654,0.0077654,0.0000000,0.0000000,0.0020614,0.0000000,0.0000000,0.0000000,0.0077654,0.0000000,0.0000000,0.0020614,0.0000000,0.0000000,0.0000000,0.0077654,0.0000000,0.0000000,0.0020614
39.6098230,0.9999000,,-0.9464279,-0.3229043,0.0000076,0.0026255,0.0037283,0.0031232,0.0083050,,,,2.3056011,-6.6617122,-18.9763584,0.0000000,0.0000000,0.0000000,0.0199980,0.0584841,0.0000000,0.0000000,0.0078067,0.0000000,0.0000000,0.0000000,0.0584841,0.0000000,0.0000000,0.0078067,0.0000000,0.0000000,0.0000000,0.0584841,0.0000000,0.0000000,0.0078067,0.0078067,0.0000000,0.0000000,0.0020669,0.0000000,0.0000000,0.0000000,0.0078067,0.0000000,0.0000000,0.0020669,0.0000000,0.0000000,0.0000000,0.0078067,0.0000000,0.0000000,0.0020669
39.6298490,1.0001000,,-0.9464279,-0.3229044,-0.0000278,0.0026364,0.0029094,-0.0005899,0.0078146,,,,2.3056011,-6.6617122,-18.9763584,0.0000000,0.0000000,0.0000000,0.0200020,0.0587964,0.0000000,0.0000000,0.0078481,0.0000000,0.0000000,0.0000000,0.0587964,0.0000000,0.0000000,0.0078481,0.0000000,0.0000000,0.0000000,0.0587964,0.0000000,0.0000000,0.0078481,0.0078481,0.0000000,0.0000000,0.0020724,0.0000000,0.0000000,0.0000000,0.0078481,0.0000000,0.0000000,0.0020724,0.0000000,0.0000000,0.0000000,0.0078481,0.0000000,0.0000000,0.0020724
39.6470930,,1.0000100,-0.9464279,-0.3229044,-0.0000278,0.0026327,,,,0.0000000,0.0000000,0.0000000,2.3056011,-6.6617122,-18.9763584,0.0000000,0.0000000,0.0000000,0.1000010,0.0572376,0.0000000,0.0000000,0.0076400,0.0000000,0.0000000,0.0000000,0.0572376,0.0000000,0.0000000,0.0076400,0.0000000,0.0000000,0.0000000,0.0572376,0.0000000,0.0000000,0.0076400,0.0076400,0.0000000,0.0000000,0.0020446,0.0000000,0.0000000,0.0000000,0.0076400,0.0000000,0.0000000,0.0020446,0.0000000,0.0000000,0.0000000,0.0076400,0.0000000,0.0000000,0.0020446
39.6606680,1.0004500,,-0.9464279,-0.3229045,-0.0000627,0.0026327,0.0017370,0.0041225,0.0065929,,,,2.3056011,-6.6617122,-18.9763584,0.0000000,0.0000000,0.0000000,0.0200090,0.0575434,0.0000000,0.0000000,0.0076810,0.0000000,0.0000000,0.0000000,0.0575434,0.0000000,0.0000000,0.0076810,0.0000000,0.0000000,0.0000000,0.0575434,0.0000000,0.0000000,0.0076810,0.0076810,0.0000000,0.0000000,0.0020501,0.0000000,0.0000000,0.0000000,0.0076810,0.0000000,0.0000000,0.0020501,0.0000000,0.0000000,0.0000000,0.0076810,0.0000000,0.0000000,0.0020501
39.6738670,1.1994500,,-0.9464279,-0.3229046,-0.0000869,0.0026127,0.0001742,0.0047239,-0.0025629,,,,2.3056011,-6.6617122,-18.9763584,0.0000000,0.0000000,0.0000000,0.0239890,0.0579119,0.0000000,0.0000000,0.0077302,0.0000000,0.0000000,0.0000000,0.0579119,0.0000000,0.0000000,0.0077302,0.0000000,0.0000000,0.0000000,0.0579119,0.0000000,0.0000000,0.0077302,0.0077302,0.0000000,0.0000000,0.0020567,0.0000000,0.0000000,0.0000000,0.0077302,0.0000000,0.0000000,0.0020567,0.0000000,0.0000000,0.0000000,0.0077302,0.0000000,0.0000000,0.0020567
39.6960690,1.0501001,,-0.9464279,-0.3229045,-0.0000706,0.0026171,0.0016359,-0.0005448,-0.0003049,,,,2.3056011,-6.6617122,-18.9763584,0.0000000,0.0000000,0.0000000,0.0210020,0.0582366,0.0000000,0.0000000,0.0077735,0.0000000,0.0000000,0.0000000,0.0582366,0.0000000,0.0000000,0.0077735,0.0000000,0.0000000,0.0000000,0.0582366,0.0000000,0.0000000,0.0077735,0.0077735,0.0000000,0.0000000,0.0020624,0.0000000,0.0000000,0.0000000,0.0077735,0.0000000,0.0000000,0.0020624,0.0000000,0.0000000,0.0000000,0.0077735,0.0000000,0.0000000,0.0020624
39.7147740,0.9999000,,-0.9464279,-0.3229045,-0.0000574,0.0026258,0.0023743,0.0000099,-0.0016173,,,,2.3056011,-6.6617122,-18.9763584,0.0000000,0.0000000,0.0000000,0.0199980,0.0585475,0.0000000,0.0000000,0.0078148,0.0000000,0.0000000,0.0000000,0.0585475,0.0000000,0.0000000,0.0078148,0.0000000,0.0000000,0.0000000,0.0585475,0.0000000,0.0000000,0.0078148,0.0078148,0.0000000,0.0000000,0.0020679,0.0000000,0.0000000,0.0000000,0.0078148,0.0000000,0.0000000,0.0020679,0.0000000,0.0000000,0.0000000,0.0078148,0.0000000,0.0000000,0.0020679
39.7361330,,1.0100501,-0.9464279,-0.3229044,-0.0000397,0.0026516,,,,0.0000000,0.0000000,0.0000000,2.3056011,-6.6617122,-18.9763584,0.0000000,0.0000000,0.0000000,0.1010050,0.0570017,0.0000000,0.0000000,0.0076084,0.0000000,0.0000000,0.0000000,0.0570017,0.0000000,0.0000000,0.0076084,0.0000000,0.0000000,0.0000000,0.0570017,0.0000000,0.0000000,0.0076084,0.0076084,0.0000000,0.0000000,0.0020404,0.0000000,0.0000000,0.0000000,0.0076084,0.0000000,0.0000000,0.0020404,0.0000000,0.0000000,0.0000000,0.0076084,0.0000000,0.0000000,0.0020404
39.7495750,0.9999500,,-0.9464279,-0.3229044,-0.0000397,0.0026516,0.0049408,0.0003406,-0.0034942,,,,2.3056011,-6.6617122,-18.9763584,0.0000000,0.0000000,0.0000000,0.0199990,0.0573060,0.0000000,0.0000000,0.0076493,0.0000000,0.0000000,0.0000000,0.0573060,0.0000000,0.0000000,0.0076493,0.0000000,0.0000000,0.0000000,0.0573060,0.0000000,0.0000000,0.0076493,0.0076493,0.0000000,0.0000000,0.0020459,0.0000000,0.0000000,0.0000000,0.0076493,0.0000000,0.0000000,0.0020459,0.0000000,0.0000000,0.0000000,0.0076493,0.0000000,0.0000000,0.0020459
39.7627410,1.4005500,,-0.9464279,-0.3229044,-0.0000227,0.0026273,-0.0025192,-0.0010275,-0.0068741,,,,2.3056011,-6.6617122,-18.9763584,0.0000000,0.0000000,0.0000000,0.0280110,0.0577345,0.0000000,0.0000000,0.0077067,0.0000000,0.0000000,0.0000000,0.0577345,0.0000000,0.0000000,0.0077067,0.0000000,0.0000000,0.0000000,0.0577345,0.0000000,0.0000000,0.0077067,0.0077067,0.0000000,0.0000000,0.0020536,0.0000000,0.0000000,0.0000000,0.0077067,0.0000000,0.0000000,0.0020536,0.0000000,0.0000000,0.0000000,0.0077067,0.0000000,0.0000000,0.0020536
39.7828610,0.9999000,,-0.9464279,-0.3229045,-0.0000368,0.0026087,-0.0006721,0.0016835,-0.0053902,,,,2.3056011,-6.6617122,-18.9763584,0.0000000,0.0000000,0.0000000,0.0199980,0.0580428,0.0000000,0.0000000,0.0077478,0.0000000,0.0000000,0.0000000,0.0580428,0.0000000,0.0000000,0.0077478,0.0000000,0.0000000,0.0000000,0.0580428,0.0000000,0.0000000,0.0077478,0.0077478,0.0000000,0.0000000,0.0020590,0.0000000,0.0000000,0.0000000,0.0077478,0.0000000,0.0000000,0.0020590,0.0000000,0.0000000,0.0000000,0.0077478,0.0000000,0.0000000,0.0020590
39.8025800,0.9996500,,-0.9464279,-0.3229045,-0.0000642,0.0026061,0.0024029,-0.0015996,-0.0073337,,,,2.3056011,-6.6617122,-18.9763584,0.0000000,0.0000000,0.0000000,0.0199930,0.0583526,0.0000000,0.0000000,0.0077890,0.0000000,0.0000000,0.0000000,0.0583526,0.0000000,0.0000000,0.0077890,0.0000000,0.0000000,0.0000000,0.0583526,0.0000000,0.0000000,0.0077890,0.0077890,0.0000000,0.0000000,0.0020645,0.0000000,0.0000000,0.0000000,0.0077890,0.0000000,0.0000000,0.0020645,0.0000000,0.0000000,0.0000000,0.0077890,0.0000000,0.0000000,0.0020645
39.8236120,1.0501001,,-0.9464279,-0.3229046,-0.0000742,0.0025858,0.0037115,-0.0001055,-0.0041552,,,,2.3056011,-6.6617122,-18.9763584,0.0000000,0.0000000,0.0000000,0.0210020,0.0586797,0.0000000,0.0000000,0.0078324,0.0000000,0.0000000,0.0000000,0.0586797,0.0000000,0.0000000,0.0078324,0.0000000,0.0000000,0.0000000,0.0586797,0.0000000,0.0000000,0.0078324,0.0078324,0.0000000,0.0000000,0.0020703,0.0000000,0.0000000,0.0000000,0.0078324,0.0000000,0.0000000,0.0020703,0.0000000,0.0000000,0.0000000,0.0078324,0.0000000,0.0000000,0.0020703
39.8397830,,1.0200200,-0.9464279,-0.3229046,-0.0000742,0.0025858,,,,0.0000000,0.0000000,0.0000000,2.3056011,-6.6617122,-18.9763584,0.0000000,0.0000000,0.0000000,0.1020020,0.0571271,0.0000000,0.0000000,0.0076252,0.0000000,0.0000000,0.0000000,0.0571271,0.0000000,0.0000000,0.0076252,0.0000000,0.0000000,0.0000000,0.0571271,0.0000000,0.0000000,0.0076252,0.0076252,0.0000000,0.0000000,0.0020426,0.0000000,0.0000000,0.0000000,0.0076252,0.0000000,0.0000000,0.0020426,0.0000000,0.0000000,0.0000000,0.0076252,0.0000000,0.0000000,0.0020426
39.8534250,1.0999000,,-0.9464279,-0.3229046,-0.0000783,0.0025754,-0.0017301,-0.0047296,-0.0040307,,,,2.3056011,-6.6617122,-18.9763584,0.0000000,0.0000000,0.0000000,0.0219980,0.0574625,0.0000000,0.0000000,0.0076702,0.0000000,0.0000000,0.0000000,0.0574625,0.0000000,0.0000000,0.0076702,0.0000000,0.0000000,0.0000000,0.0574625,0.0000000,0.0000000,0.0076702,0.0076702,0.0000000,0.0000000,0.0020486,0.0000000,0.0000000,0.0000000,0.0076702,0.0000000,0.0000000,0.0020486,0.0000000,0.0000000,0.0000000,0.0076702,0.0000000,0.0000000,0.0020486
39.8669630,1.0502501,,-0.9464279,-0.3229046,-0.0000960,0.0025889,0.0006303,0.0051959,0.0031116,,,,2.3056011,-6.6617122,-18.9763584,0.0000000,0.0000000,0.0000000,0.0210050,0.0577848,0.0000000,0.0000000,0.0077133,0.0000000,0.0000000,0.0000000,0.0577848,0.0000000,0.0000000,0.0077133,0.0000000,0.0000000,0.0000000,0.0577848,0.0000000,0.0000000,0.0077133,0.0077133,0.0000000,0.0000000,0.0020544,0.0000000,0.0000000,0.0000000,0.0077133,0.0000000,0.0000000,0.0020544,0.0000000,0.0000000,0.0000000,0.0077133,0.0000000,0.0000000,0.0020544
39.8868940,1.0002501,,-0.9464279,-0.3229047,-0.0001012,0.0025782,0.0008569,-0.0011099,-0.0025946,,,,2.3056011,-6.6617122,-18.9763584,0.0000000,0.0000000,0.0000000,0.0200050,0.0580934,0.0000000,0.0000000,0.0077544,0.0000000,0.0000000,0.0000000,0.0580934,0.0000000,0.0000000,0.0077544,0.0000000,0.0000000,0.0000000,0.0580934,0.0000000,0.0000000,0.0077544,0.0077544,0.0000000,0.0000000,0.0020599,0.0000000,0.0000000,0.0000000,0.0077544,0.0000000,0.0000000,0.0020599,0.0000000,0.0000000,0.0000000,0.0077544,0.0000000,0.0000000,0.0020599
39.9068590,0.9998000,,-0.9464279,-0.3229047,-0.0001234,0.0025840,0.0048306,-0.0032710,0.0004117,,,,2.3056011,-6.6617122,-18.9763584,0.0000000,0.0000000,0.0000000,0.0199960,0.0584035,0.0000000,0.0000000,0.0077957,0.0000000,0.0000000,0.0000000,0.0584035,0.0000000,0.0000000,0.0077957,0.0000000,0.0000000,0.0000000,0.0584035,0.0000000,0.0000000,0.0077957,0.0077957,0.0000000,0.0000000,0.0020654,0.0000000,0.0000000,0.0000000,0.0077957,0.0000000,0.0000000,0.0020654,0.0000000,0.0000000,0.0000000,0.0077957,0.0000000,0.0000000,0.0020654
39.9269210,0.9997500,,-0.9464279,-0.3229047,-0.0001229,0.0025867,0.0036665,-0.0006818,0.0011824,,,,2.3056011,-6.6617122,-18.9763584,0.0000000,0.0000000,0.0000000,0.0199950,0.0587152,0.0000000,0.0000000,0.0078370,0.0000000,0.0000000,0.0000000,0.0587152,0.0000000,0.0000000,0.0078370,0.0000000,0.0000000,0.0000000,0.0587152,0.0000000,0.0000000,0.0078370,0.0078370,0.0000000,0.0000000,0.0020709,0.0000000,0.0000000,0.0000000,0.0078370,0.0000000,0.0000000,0.0020709,0.0000000,0.0000000,0.0000000,0.0078370,0.0000000,0.0000000,0.0020709
39.9427510,,1.0199300,-0.9464279,-0.3229047,-0.0001229,0.0025524,,,,0.0000000,0.0000000,0.0000000,2.3056011,-6.6617122,-18.9763584,0.0000000,0.0000000,0.0000000,0.1019930,0.0571607,0.0000000,0.0000000,0.0076295,0.0000000,0.0000000,0.0000000,0.0571607,0.0000000,0.0000000,0.0076295,0.0000000,0.0000000,0.0000000,0.0571607,0.0000000,0.0000000,0.0076295,0.0076295,0.0000000,0.0000000,0.0020432,0.0000000,0.0000000,0.0000000,0.0076295,0.0000000,0.0000000,0.0020432,0.0000000,0.0000000,0.0000000,0.0076295,0.0000000,0.0000000,0.0020432
39.9567420,1.0002000,,-0.9464281,-0.3229047,-0.0001162,0.0025524,-0.0010354,0.0027414,0.0025443,,,,2.3056011,-6.6617122,-18.9763584,0.0000000,0.0000000,0.0000000,0.0200040,0.0574659,0.0000000,0.0000000,0.0076705,0.0000000,0.0000000,0.0000000,0.0574659,0.0000000,0.0000000,0.0076705,0.0000000,0.0000000,0.0000000,0.0574659,0.0000000,0.0000000,0.0076705,0.0076705,0.0000000,0.0000000,0.0020486,0.0000000,0.0000000,0.0000000,0.0076705,0.0000000,0.0000000,0.0020486,0.0000000,0.0000000,0.0000000,0.0076705,0.0000000,0.0000000,0.0020486
39.9695520,1.1497000,,-0.9464281,-0.3229048,-0.0001251,0.0025147,0.0017330,-0.0019405,-0.0019017,,,,2.3056011,-6.6617122,-18.9763584,0.0000000,0.0000000,0.0000000,0.0229940,0.0578187,0.0000000,0.0000000,0.0077176,0.0000000,0.0000000,0.0000000,0.0578187,0.0000000,0.0000000,0.0077176,0.0000000,0.0000000,0.0000000,0.0578187,0.0000000,0.0000000,0.0077176,0.0077176,0.0000000,0.0000000,0.0020550,0.0000000,0.0000000,0.0000000,0.0077176,0.0000000,0.0000000,0.0020550,0.0000000,0.0000000,0.0000000,0.0077176,0.0000000,0.0000000,0.0020550
39.9907820,1.0500000,,-0.9464281,-0.3229048,-0.0001360,0.0025052,0.0045667,-0.0047544,-0.0009508,,,,2.3056011,-6.6617122,-18.9763584,0.0000000,0.0000000,0.0000000,0.0210000,0.0581428,0.0000000,0.0000000,0.0077608,0.0000000,0.0000000,0.0000000,0.0581428,0.0000000,0.0000000,0.0077608,0.0000000,0.0000000,0.0000000,0.0581428,0.0000000,0.0000000,0.0077608,0.0077608,0.0000000,0.0000000,0.0020607,0.0000000,0.0000000,0.0000000,0.0077608,0.0000000,0.0000000,0.0020607,0.0000000,0.0000000,0.0000000,0.0077608,0.0000000,0.0000000,0.0020607
40.0121010,1.0001000,,-0.9464281,-0.3229048,-0.0001378,0.0025236,0.0062201,-0.0097777,0.0051398,,,,2.3056011,-6.6617122,-18.9763584,0.0000000,0.0000000,0.0000000,0.0200020,0.0584533,0.0000000,0.0000000,0.0078021,0.0000000,0.0000000,0.0000000,0.0584533,0.0000000,0.0000000,0.0078021,0.0000000,0.0000000,0.0000000,0.0584533,0.0000000,0.0000000,0.0078021,0.0078021,0.0000000,0.0000000,0.0020662,0.0000000,0.0000000,0.0000000,0.0078021,0.0000000,0.0000000,0.0020662,0.0000000,0.0000000,0.0000000,0.0078021,0.0000000,0.0000000,0.0020662
40.0309180,0.9999000,,-0.9464281,-0.3229048,-0.0001200,0.0025153,-0.0014523,-0.0054763,-0.0052426,,,,2.3056011,-6.6617122,-18.9763584,0.0000000,0.0000000,0.0000000,0.0199980,0.0587653,0.0000000,0.0000000,0.0078435,0.0000000,0.0000000,0.0000000,0.0587653,0.0000000,0.0000000,0.0078435,0.0000000,0.0000000,0.0000000,0.0587653,0.0000000,0.0000000,0.0078435,0.0078435,0.0000000,0.0000000,0.0020717,0.0000000,0.0000000,0.0000000,0.0078435,0.0000000,0.0000000,0.0020717,0.0000000,0.0000000,0.0000000,0.0078435,0.0000000,0.0000000,0.0020717
40.0466060,,1.0199800,-0.9464281,-0.3229048,-0.0001200,0.0025153,,,,0.0000000,0.0000000,0.0000000,2.3056011,-6.6617122,-18.9763584,0.0000000,0.0000000,0.0000000,0.1019980,0.0572082,0.0000000,0.0000000,0.0076357,0.0000000,0.0000000,0.0000000,0.0572082,0.0000000,0.0000000,0.0076357,0.0000000,0.0000000,0.0000000,0.0572082,0.0000000,0.0000000,0.0076357,0.0076357,0.0000000,0.0000000,0.0020439,0.0000000,0.0000000,0.0000000,0.0076357,0.0000000,0.0000000,0.0020439,0.0000000,0.0000000,0.0000000,0.0076357,0.0000000,0.0000000,0.0020439
40.0606080,1.0000000,,-0.9464262,-0.3229104,-0.0001382,0.0025355,0.0068498,-0.0150139,-0.0223967,,,,2.3056011,-6.6617122,-18.9763584,0.0000000,0.0000000,0.0000000,0.0200000,0.0575136,0.0000000,0.0000000,0.0076766,0.0000000,0.0000000,0.0000000,0.0575136,0.0000000,0.0000000,0.0076766,0.0000000,0.0000000,0.0000000,0.0575136,0.0000000,0.0000000,0.0076766,0.0076766,0.0000000,0.0000000,0.0020494,0.0000000,0.0000000,0.0000000,0.0076766,0.0000000,0.0000000,0.0020494,0.0000000,0.0000000,0.0000000,0.0076766,0.0000000,0.0000000,0.0020494
40.0736040,1.1500000,,-0.9463670,-0.3230838,-0.0001313,0.0025039,-0.0297172,-0.0349880,0.0058915,,,,2.3056011,-6.6617122,-18.9763584,0.0000000,0.0000000,0.0000000,0.0230000,0.0578667,0.0000000,0.0000000,0.0077238,0.0000000,0.0000000,0.0000000,0.0578667,0.0000000,0.0000000,0.0077238,0.0000000,0.0000000,0.0000000,0.0578667,0.0000000,0.0000000,0.0077238,0.0077238,0.0000000,0.0000000,0.0020557,0.0000000,0.0000000,0.0000000,0.0077238,0.0000000,0.0000000,0.0020557,0.0000000,0.0000000,0.0000000,0.0077238,0.0000000,0.0000000,0.0020557
40.0947540,1.0500500,,-0.9463513,-0.3231286,-0.0000847,0.0026465,0.0235173,-0.0846861,0.0234459,,,,2.3056011,-6.6617122,-18.9763584,0.0000000,0.0000000,0.0000000,0.0210010,0.0581911,0.0000000,0.0000000,0.0077670,0.0000000,0.0000000,0.0000000,0.0581911,0.0000000,0.0000000,0.0077670,0.0000000,0.0000000,0.0000000,0.0581911,0.0000000,0.0000000,0.0077670,0.0077670,0.0000000,0.0000000,0.0020615,0.0000000,0.0000000,0.0000000,0.0077670,0.0000000,0.0000000,0.0020615,0.0000000,0.0000000,0.0000000,0.0077670,0.0000000,0.0000000,0.0020615
40.1159970,1.0500500,,-0.9463412,-0.3231557,0.0000508,0.0029482,0.0440920,-0.1766585,0.0317349,,,,2.3056011,-6.6617122,-18.9763584,0.0000000,0.0000000,0.0000000,0.0210010,0.0585174,0.0000000,0.0000000,0.0078104,0.0000000,0.0000000,0.0000000,0.0585174,0.0000000,0.0000000,0.0078104,0.0000000,0.0000000,0.0000000,0.0585174,0.0000000,0.0000000,0.0078104,0.0078104,0.0000000,0.0000000,0.0020672,0.0000000,0.0000000,0.0000000,0.0078104,0.0000000,0.0000000,0.0020672,0.0000000,0.0000000,0.0000000,0.0078104,0.0000000,0.0000000,0.0020672
40.1356930,0.9999000,,-0.9462997,-0.3232633,0.0003065,0.0040383,-0.0020247,-0.2361259,0.0417235,,,,2.3056011,-6.6617122,-18.9763584,0.0000000,0.0000000,0.0000000,0.0199980,0.0588298,0.0000000,0.0000000,0.0078518,0.0000000,0.0000000,0.0000000,0.0588298,0.0000000,0.0000000,0.0078518,0.0000000,0.0000000,0.0000000,0.0588298,0.0000000,0.0000000,0.0078518,0.0078518,0.0000000,0.0000000,0.0020727,0.0000000,0.0000000,0.0000000,0.0078518,0.0000000,0.0000000,0.0020727,0.0000000,0.0000000,0.0000000,0.0078518,0.0000000,0.0000000,0.0020727
40.1515150,,1.0001000,-0.9462997,-0.3232633,0.0003065,0.0040383,,,,0.0000000,0.0000000,0.0000000,2.3056011,-6.6617122,-18.9763584,0.0000000,0.0000000,0.0000000,0.1000100,0.0572692,0.0000000,0.0000000,0.0076435,0.0000000,0.0000000,0.0000000,0.0572692,0.0000000,0.0000000,0.0076435,0.0000000,0.0000000,0.0000000,0.0572692,0.0000000,0.0000000,0.0076435,0.0076435,0.0000000,0.0000000,0.0020449,0.0000000,0.0000000,0.0000000,0.0076435,0.0000000,0.0000000,0.0020449,0.0000000,0.0000000,0.0000000,0.0076435,0.0000000,0.0000000,0.0020449
40.1654450,1.0000000,,-0.9462630,-0.3233609,0.0007421,0.0047208,-0.0556007,-0.1198864,0.0269347,,,,2.3056011,-6.6617122,-18.9763584,0.0000000,0.0000000,0.0000000,0.0200000,0.0575750,0.0000000,0.0000000,0.0076844,0.0000000,0.0000000,0.0000000,0.0575750,0.0000000,0.0000000,0.0076844,0.0000000,0.0000000,0.0000000,0.0575750,0.0000000,0.0000000,0.0076844,0.0076844,0.0000000,0.0000000,0.0020504,0.0000000,0.0000000,0.0000000,0.0076844,0.0000000,0.0000000,0.0020504,0.0000000,0.0000000,0.0000000,0.0076844,0.0000000,0.0000000,0.0020504
40.1785150,1.1500000,,-0.9462425,-0.3234165,0.0008649,0.0050473,-0.0903690,0.0604563,0.0490890,,,,2.3056011,-6.6617122,-18.9763584,0.0000000,0.0000000,0.0000000,0.0230000,0.0579284,0.0000000,0.0000000,0.0077317,0.0000000,0.0000000,0.0000000,0.0579284,0.0000000,0.0000000,0.0077317,0.0000000,0.0000000,0.0000000,0.0579284,0.0000000,0.0000000,0.0077317,0.0077317,0.0000000,0.0000000,0.0020567,0.0000000,0.0000000,0.0000000,0.0077317,0.0000000,0.0000000,0.0020567,0.0000000,0.0000000,0.0000000,0.0077317,0.0000000,0.0000000,0.0020567
40.1998190,1.0500500,,-0.9462561,-0.3233739,0.0008299,0.0052533,-0.1533693,0.0839925,-0.1451561,,,,2.3056011,-6.6617122,-18.9763584,0.0000000,0.0000000,0.0000000,0.0210010,0.0582532,0.0000000,0.0000000,0.0077749,0.0000000,0.0000000,0.0000000,0.0582532,0.0000000,0.0000000,0.0077749,0.0000000,0.0000000,0.0000000,0.0582532,0.0000000,0.0000000,0.0077749,0.0077749,0.0000000,0.0000000,0.0020625,0.0000000,0.0000000,0.0000000,0.0077749,0.0000000,0.0000000,0.0020625,0.0000000,0.0000000,0.0000000,0.0077749,0.0000000,0.0000000,0.0020625
40.2222780,1.0500500,,-0.9462221,-0.3234621,0.0013083,0.0057927,-0.1995942,-0.3327749,0.1844639,,,,2.3055212,-6.6616807,-18.9763985,-0.0076165,0.0029990,-0.0037964,0.0210010,0.0585797,0.0000000,0.0000000,0.0078183,0.0000000,0.0000000,0.0000000,0.0585797,0.0000000,0.0000000,0.0078183,0.0000000,0.0000000,0.0000000,0.0585797,0.0000000,0.0000000,0.0078183,0.0078183,0.0000000,0.0000000,0.0020682,0.0000000,0.0000000,0.0000000,0.0078183,0.0000000,0.0000000,0.0020682,0.0000000,0.0000000,0.0000000,0.0078183,0.0000000,0.0000000,0.0020682
40.2433370,,1.0098799,-0.9461648,-0.3236213,0.0017972,0.0061157,,,,-0.2228247,-0.1823354,-0.0004578,2.2996371,-6.6664982,-18.9764099,-0.0084018,0.0023560,-0.0037979,0.1009880,0.0570323,0.0000000,0.0000000,0.0076118,0.0000000,0.0000000,0.0000000,0.0570323,0.0000000,0.0000000,0.0076118,0.0000000,0.0000000,0.0000000,0.0570323,0.0000000,0.0000000,0.0076118,0.0076118,0.0000000,0.0000000,0.0020407,0.0000000,0.0000000,0.0000000,0.0076118,0.0000000,0.0000000,0.0020407,0.0000000,0.0000000,0.0000000,0.0076118,0.0000000,0.0000000,0.0020407
40.2566620,0.9999500,,-0.9461648,-0.3236213,0.0017972,0.0061157,-0.2520569,-0.2220515,-0.0696791,,,,2.2994020,-6.6664472,-18.9764709,-0.0150960,0.0027647,-0.0023508,0.0199990,0.0573367,0.0000000,0.0000000,0.0076526,0.0000000,0.0000000,0.0000000,0.0573367,0.0000000,0.0000000,0.0076526,0.0000000,0.0000000,0.0000000,0.0573367,0.0000000,0.0000000,0.0076526,0.0076526,0.0000000,0.0000000,0.0020462,0.0000000,0.0000000,0.0000000,0.0076526,0.0000000,0.0000000,0.0020462,0.0000000,0.0000000,0.0000000,0.0076526,0.0000000,0.0000000,0.0020462
40.2700180,1.4500000,,-0.9461750,-0.3235902,0.0024695,0.0059530,-0.0162796,-0.4763517,0.0058938,,,,2.2988362,-6.6662130,-18.9765396,-0.0239293,0.0133974,-0.0023436,0.0290000,0.0577806,0.0000000,0.0000000,0.0077120,0.0000000,0.0000000,0.0000000,0.0577806,0.0000000,0.0000000,0.0077120,0.0000000,0.0000000,0.0000000,0.0577806,0.0000000,0.0000000,0.0077120,0.0077120,0.0000000,0.0000000,0.0020541,0.0000000,0.0000000,0.0000000,0.0077120,0.0000000,0.0000000,0.0020541,0.0000000,0.0000000,0.0000000,0.0077120,0.0000000,0.0000000,0.0020541
40.2899720,1.0000501,,-0.9461416,-0.3236795,0.0030562,0.0061330,0.0999535,-0.5591445,0.1340046,,,,2.2983046,-6.6658440,-18.9766121,-0.0292246,0.0234870,-0.0048753,0.0200010,0.0580891,0.0000000,0.0000000,0.0077532,0.0000000,0.0000000,0.0000000,0.0580891,0.0000000,0.0000000,0.0077532,0.0000000,0.0000000,0.0000000,0.0580891,0.0000000,0.0000000,0.0077532,0.0077532,0.0000000,0.0000000,0.0020596,0.0000000,0.0000000,0.0000000,0.0077532,0.0000000,0.0000000,0.0020596,0.0000000,0.0000000,0.0000000,0.0077532,0.0000000,0.0000000,0.0020596
40.3099470,1.0004500,,-0.9460866,-0.3238245,0.0035341,0.0066548,-0.0152012,-0.2277763,-0.0050802,,,,2.2983046,-6.6658440,-18.9766121,0.0000000,0.0000000,0.0000000,0.0200090,0.0583993,0.0000000,0.0000000,0.0077944,0.0000000,0.0000000,0.0000000,0.0583993,0.0000000,0.0000000,0.0077944,0.0000000,0.0000000,0.0000000,0.0583993,0.0000000,0.0000000,0.0077944,0.0077944,0.0000000,0.0000000,0.0020651,0.0000000,0.0000000,0.0000000,0.0077944,0.0000000,0.0000000,0.0020651,0.0000000,0.0000000,0.0000000,0.0077944,0.0000000,0.0000000,0.0020651
40.3309790,1.0494500,,-0.9460753,-0.3238543,0.0037177,0.0067500,0.0742018,-0.3527263,0.1626821,,,,2.2982695,-6.6657720,-18.9766464,-0.0033445,0.0068396,-0.0033059,0.0209890,0.0587265,0.0000000,0.0000000,0.0078378,0.0000000,0.0000000,0.0000000,0.0587265,0.0000000,0.0000000,0.0078378,0.0000000,0.0000000,0.0000000,0.0587265,0.0000000,0.0000000,0.0078378,0.0078378,0.0000000,0.0000000,0.0020708,0.0000000,0.0000000,0.0000000,0.0078378,0.0000000,0.0000000,0.0020708,0.0000000,0.0000000,0.0000000,0.0078378,0.0000000,0.0000000,0.0020708
40.3493750,,1.0201299,-0.9460753,-0.3238543,0.0039231,0.0065230,,,,-0.5296958,-0.4306776,0.0015786,2.2842789,-6.6771960,-18.9765987,-0.0052118,0.0053149,-0.0032995,0.1020130,0.0571714,0.0000000,0.0000000,0.0076303,0.0000000,0.0000000,0.0000000,0.0571714,0.0000000,0.0000000,0.0076303,0.0000000,0.0000000,0.0000000,0.0571714,0.0000000,0.0000000,0.0076303,0.0076303,0.0000000,0.0000000,0.0020431,0.0000000,0.0000000,0.0000000,0.0076303,0.0000000,0.0000000,0.0020431,0.0000000,0.0000000,0.0000000,0.0076303,0.0000000,0.0000000,0.0020431
40.3631890,1.0005500,,-0.9460846,-0.3238297,0.0039231,0.0065230,0.0384818,-0.4783956,0.3947642,,,,2.2841210,-6.6770086,-18.9767418,-0.0105606,0.0134287,-0.0110582,0.0200110,0.0574768,0.0000000,0.0000000,0.0076712,0.0000000,0.0000000,0.0000000,0.0574768,0.0000000,0.0000000,0.0076712,0.0000000,0.0000000,0.0000000,0.0574768,0.0000000,0.0000000,0.0076712,0.0076712,0.0000000,0.0000000,0.0020486,0.0000000,0.0000000,0.0000000,0.0076712,0.0000000,0.0000000,0.0020486,0.0000000,0.0000000,0.0000000,0.0076712,0.0000000,0.0000000,0.0020486
40.3780900,1.2998000,,-0.9460509,-0.3239257,0.0040216,0.0065972,0.0419765,0.2967748,0.3711492,,,,2.2839177,-6.6767287,-18.9771557,-0.0050850,0.0080977,-0.0208254,0.0259960,0.0578756,0.0000000,0.0000000,0.0077246,0.0000000,0.0000000,0.0000000,0.0578756,0.0000000,0.0000000,0.0077246,0.0000000,0.0000000,0.0000000,0.0578756,0.0000000,0.0000000,0.0077246,0.0077246,0.0000000,0.0000000,0.0020558,0.0000000,0.0000000,0.0000000,0.0077246,0.0000000,0.0000000,0.0020558,0.0000000,0.0000000,0.0000000,0.0077246,0.0000000,0.0000000,0.0020558
40.3967780,0.9999500,,-0.9460322,-0.3239533,0.0042073,0.0076477,-0.1380694,0.3592181,0.1884127,,,,2.2838378,-6.6766400,-18.9776115,-0.0029124,0.0007740,-0.0247082,0.0199990,0.0581846,0.0000000,0.0000000,0.0077657,0.0000000,0.0000000,0.0000000,0.0581846,0.0000000,0.0000000,0.0077657,0.0000000,0.0000000,0.0000000,0.0581846,0.0000000,0.0000000,0.0077657,0.0077657,0.0000000,0.0000000,0.0020612,0.0000000,0.0000000,0.0000000,0.0077657,0.0000000,0.0000000,0.0020612,0.0000000,0.0000000,0.0000000,0.0077657,0.0000000,0.0000000,0.0020612
40.4168000,0.9998500,,-0.9460420,-0.3239176,0.0042815,0.0079301,-0.1225015,0.2259042,0.0660463,,,,2.2837877,-6.6766753,-18.9781189,-0.0020971,-0.0042803,-0.0261017,0.0199970,0.0584952,0.0000000,0.0000000,0.0078070,0.0000000,0.0000000,0.0000000,0.0584952,0.0000000,0.0000000,0.0078070,0.0000000,0.0000000,0.0000000,0.0584952,0.0000000,0.0000000,0.0078070,0.0078070,0.0000000,0.0000000,0.0020667,0.0000000,0.0000000,0.0000000,0.0078070,0.0000000,0.0000000,0.0020667,0.0000000,0.0000000,0.0000000,0.0078070,0.0000000,0.0000000,0.0020667
40.4367100,1.0000000,,-0.9460551,-0.3238660,0.0044088,0.0084028,-0.1255055,0.1484593,-0.0234725,,,,2.2837877,-6.6766753,-18.9781189,0.0000000,0.0000000,0.0000000,0.0200000,0.0588075,0.0000000,0.0000000,0.0078484,0.0000000,0.0000000,0.0000000,0.0588075,0.0000000,0.0000000,0.0078484,0.0000000,0.0000000,0.0000000,0.0588075,0.0000000,0.0000000,0.0078484,0.0078484,0.0000000,0.0000000,0.0020722,0.0000000,0.0000000,0.0000000,0.0078484,0.0000000,0.0000000,0.0020722,0.0000000,0.0000000,0.0000000,0.0078484,0.0000000,0.0000000,0.0020722
40.4540790,,1.0199499,-0.9460551,-0.3238660,0.0044088,0.0084028,,,,-0.2570837,-0.1604214,0.0014517,2.2769837,-6.6809430,-18.9780407,-0.0009080,-0.0005696,0.0000105,0.1019950,0.0572481,0.0000000,0.0000000,0.0076403,0.0000000,0.0000000,0.0000000,0.0572481,0.0000000,0.0000000,0.0076403,0.0000000,0.0000000,0.0000000,0.0572481,0.0000000,0.0000000,0.0076403,0.0076403,0.0000000,0.0000000,0.0020444,0.0000000,0.0000000,0.0000000,0.0076403,0.0000000,0.0000000,0.0020444,0.0000000,0.0000000,0.0000000,0.0076403,0.0000000,0.0000000,0.0020444
40.4666840,1.0999000,,-0.9460996,-0.3237341,0.0041398,0.0086135,-0.0680476,0.0728487,0.0914437,,,,2.2769837,-6.6809430,-18.9780407,0.0000000,0.0000000,0.0000000,0.0219980,0.0575842,0.0000000,0.0000000,0.0076853,0.0000000,0.0000000,0.0000000,0.0575842,0.0000000,0.0000000,0.0076853,0.0000000,0.0000000,0.0000000,0.0575842,0.0000000,0.0000000,0.0076853,0.0076853,0.0000000,0.0000000,0.0020505,0.0000000,0.0000000,0.0000000,0.0076853,0.0000000,0.0000000,0.0020505,0.0000000,0.0000000,0.0000000,0.0076853,0.0000000,0.0000000,0.0020505
40.4800090,1.0499500,,-0.9461370,-0.3236180,0.0039661,0.0089518,0.0969348,0.3215882,0.0868824,,,,2.2770438,-6.6809855,-18.9780617,0.0057197,-0.0040646,-0.0019593,0.0209990,0.0579070,0.0000000,0.0000000,0.0077284,0.0000000,0.0000000,0.0000000,0.0579070,0.0000000,0.0000000,0.0077284,0.0000000,0.0000000,0.0000000,0.0579070,0.0000000,0.0000000,0.0077284,0.0077284,0.0000000,0.0000000,0.0020562,0.0000000,0.0000000,0.0000000,0.0077284,0.0000000,0.0000000,0.0020562,0.0000000,0.0000000,0.0000000,0.0077284,0.0000000,0.0000000,0.0020562
40.4998900,1.0000501,,-0.9461570,-0.3235685,0.0036153,0.0087683,-0.0134757,0.1519135,0.0997538,,,,2.2770438,-6.6809855,-18.9780617,0.0000000,0.0000000,0.0000000,0.0200010,0.0582161,0.0000000,0.0000000,0.0077696,0.0000000,0.0000000,0.0000000,0.0582161,0.0000000,0.0000000,0.0077696,0.0000000,0.0000000,0.0000000,0.0582161,0.0000000,0.0000000,0.0077696,0.0077696,0.0000000,0.0000000,0.0020617,0.0000000,0.0000000,0.0000000,0.0077696,0.0000000,0.0000000,0.0020617,0.0000000,0.0000000,0.0000000,0.0077696,0.0000000,0.0000000,0.0020617
40.5197050,1.0006001,,-0.9461828,-0.3235049,0.0032863,0.0084523,0.0884007,0.1976532,0.0935094,,,,2.2770438,-6.6809855,-18.9780617,0.0000000,0.0000000,0.0000000,0.0200120,0.0585271,0.0000000,0.0000000,0.0078109,0.0000000,0.0000000,0.0000000,0.0585271,0.0000000,0.0000000,0.0078109,0.0000000,0.0000000,0.0000000,0.0585271,0.0000000,0.0000000,0.0078109,0.0078109,0.0000000,0.0000000,0.0020672,0.0000000,0.0000000,0.0000000,0.0078109,0.0000000,0.0000000,0.0020672,0.0000000,0.0000000,0.0000000,0.0078109,0.0000000,0.0000000,0.0020672
40.5405890,1.0494001,,-0.9462025,-0.3234523,0.0031625,0.0083238,0.1970171,-0.1224106,-0.0485364,,,,2.2770438,-6.6809855,-18.9780617,0.0000000,0.0000000,0.0000000,0.0209880,0.0588550,0.0000000,0.0000000,0.0078544,0.0000000,0.0000000,0.0000000,0.0588550,0.0000000,0.0000000,0.0078544,0.0000000,0.0000000,0.0000000,0.0588550,0.0000000,0.0000000,0.0078544,0.0078544,0.0000000,0.0000000,0.0020729,0.0000000,0.0000000,0.0000000,0.0078544,0.0000000,0.0000000,0.0020729,0.0000000,0.0000000,0.0000000,0.0078544,0.0000000,0.0000000,0.0020729
40.5570110,,0.9999800,-0.9462025,-0.3234523,0.0031625,0.0083238,,,,-0.2573334,-0.1984378,0.0002060,2.2702134,-6.6862502,-18.9780560,-0.0009116,-0.0007026,0.0000008,0.0999980,0.0572931,0.0000000,0.0000000,0.0076459,0.0000000,0.0000000,0.0000000,0.0572931,0.0000000,0.0000000,0.0076459,0.0000000,0.0000000,0.0000000,0.0572931,0.0000000,0.0000000,0.0076459,0.0076459,0.0000000,0.0000000,0.0020451,0.0000000,0.0000000,0.0000000,0.0076459,0.0000000,0.0000000,0.0020451,0.0000000,0.0000000,0.0000000,0.0076459,0.0000000,0.0000000,0.0020451
40.5716300,1.1000000,,-0.9462219,-0.3233896,0.0029917,0.0086005,0.1595895,-0.0184425,-0.0382682,,,,2.2702134,-6.6862502,-18.9780560,0.0000000,0.0000000,0.0000000,0.0220000,0.0576295,0.0000000,0.0000000,0.0076910,0.0000000,0.0000000,0.0000000,0.0576295,0.0000000,0.0000000,0.0076910,0.0000000,0.0000000,0.0000000,0.0576295,0.0000000,0.0000000,0.0076910,0.0076910,0.0000000,0.0000000,0.0020512,0.0000000,0.0000000,0.0000000,0.0076910,0.0000000,0.0000000,0.0020512,0.0000000,0.0000000,0.0000000,0.0076910,0.0000000,0.0000000,0.0020512
40.5848030,1.0999500,,-0.9462478,-0.3233027,0.0029217,0.0090341,0.1116627,0.1544750,-0.0050655,,,,2.2702134,-6.6862502,-18.9780560,0.0000000,0.0000000,0.0000000,0.0219990,0.0579679,0.0000000,0.0000000,0.0077362,0.0000000,0.0000000,0.0000000,0.0579679,0.0000000,0.0000000,0.0077362,0.0000000,0.0000000,0.0000000,0.0579679,0.0000000,0.0000000,0.0077362,0.0077362,0.0000000,0.0000000,0.0020572,0.0000000,0.0000000,0.0000000,0.0077362,0.0000000,0.0000000,0.0020572,0.0000000,0.0000000,0.0000000,0.0077362,0.0000000,0.0000000,0.0020572
40.6048480,1.0001000,,-0.9462572,-0.3232752,0.0028953,0.0090446,0.0417094,0.2327322,0.0349810,,,,2.2702134,-6.6862502,-18.9780560,0.0000000,0.0000000,0.0000000,0.0200020,0.0582774,0.0000000,0.0000000,0.0077774,0.0000000,0.0000000,0.0000000,0.0582774,0.0000000,0.0000000,0.0077774,0.0000000,0.0000000,0.0000000,0.0582774,0.0000000,0.0000000,0.0077774,0.0077774,0.0000000,0.0000000,0.0020627,0.0000000,0.0000000,0.0000000,0.0077774,0.0000000,0.0000000,0.0020627,0.0000000,0.0000000,0.0000000,0.0077774,0.0000000,0.0000000,0.0020627
40.6248660,1.0003999,,-0.9462484,-0.3232793,0.0031096,0.0097064,0.0414006,0.0149486,0.0002862,,,,2.2702134,-6.6862502,-18.9780560,0.0000000,0.0000000,0.0000000,0.0200080,0.0585886,0.0000000,0.0000000,0.0078187,0.0000000,0.0000000,0.0000000,0.0585886,0.0000000,0.0000000,0.0078187,0.0000000,0.0000000,0.0000000,0.0585886,0.0000000,0.0000000,0.0078187,0.0078187,0.0000000,0.0000000,0.0020682,0.0000000,0.0000000,0.0000000,0.0078187,0.0000000,0.0000000,0.0020682,0.0000000,0.0000000,0.0000000,0.0078187,0.0000000,0.0000000,0.0020682
40.6459200,,1.0000100,-0.9462763,-0.3232071,0.0028731,0.0094685,,,,-0.2478913,-0.2114111,-0.0004440,2.2636640,-6.6918359,-18.9780674,0.0000000,0.0000000,0.0000000,0.1000010,0.0570407,0.0000000,0.0000000,0.0076121,0.0000000,0.0000000,0.0000000,0.0570407,0.0000000,0.0000000,0.0076121,0.0000000,0.0000000,0.0000000,0.0570407,0.0000000,0.0000000,0.0076121,0.0076121,0.0000000,0.0000000,0.0020406,0.0000000,0.0000000,0.0000000,0.0076121,0.0000000,0.0000000,0.0020406,0.0000000,0.0000000,0.0000000,0.0076121,0.0000000,0.0000000,0.0020406
40.6598600,0.9998500,,-0.9462763,-0.3232071,0.0028731,0.0094685,-0.0552198,-0.0757090,-0.0512180,,,,2.2636640,-6.6918359,-18.9780674,0.0000000,0.0000000,0.0000000,0.0199970,0.0573451,0.0000000,0.0000000,0.0076530,0.0000000,0.0000000,0.0000000,0.0573451,0.0000000,0.0000000,0.0076530,0.0000000,0.0000000,0.0000000,0.0573451,0.0000000,0.0000000,0.0076530,0.0076530,0.0000000,0.0000000,0.0020461,0.0000000,0.0000000,0.0000000,0.0076530,0.0000000,0.0000000,0.0020461,0.0000000,0.0000000,0.0000000,0.0076530,0.0000000,0.0000000,0.0020461
