t,predict_cpu,update_cpu,quat_x,quat_y,quat_z,quat_w,accel_x,accel_y,accel_z,of_x,of_y,of_z,x_x,x_y,x_z,x_vx,x_vy,x_vz,dt,P_0,P_1,P_2,P_3,P_4,P_5,P_6,P_7,P_8,P_9,P_10,P_11,P_12,P_13,P_14,P_15,P_16,P_17,P_18,P_19,P_20,P_21,P_22,P_23,P_24,P_25,P_26,P_27,P_28,P_29,P_30,P_31,P_32,P_33,P_34,P_35
24.2387900,1.0999500,,-0.9596195,-0.2812969,0.0003542,0.0015206,-0.0052530,0.0018932,-0.0023164,,,,2.1432741,-6.9281516,-21.3700905,0.0000000,0.0000000,0.0000000,0.0219990,0.0594135,0.0000000,0.0000000,0.0077446,0.0000000,0.0000000,0.0000000,0.0594135,0.0000000,0.0000000,0.0077446,0.0000000,0.0000000,0.0000000,0.0594135,0.0000000,0.0000000,0.0077446,0.0077446,0.0000000,0.0000000,0.0020501,0.0000000,0.0000000,0.0000000,0.0077446,0.0000000,0.0000000,0.0020501,0.0000000,0.0000000,0.0000000,0.0077446,0.0000000,0.0000000,0.0020501
24.2517450,0.9999500,,-0.9596195,-0.2812969,0.0003562,0.0015464,-0.0049153,-0.0042795,-0.0004258,,,,2.1432741,-6.9281516,-21.3700905,0.0000000,0.0000000,0.0000000,0.0199990,0.0597233,0.0000000,0.0000000,0.0077857,0.0000000,0.0000000,0.0000000,0.0597233,0.0000000,0.0000000,0.0077857,0.0000000,0.0000000,0.0000000,0.0597233,0.0000000,0.0000000,0.0077857,0.0077857,0.0000000,0.0000000,0.0020556,0.0000000,0.0000000,0.0000000,0.0077857,0.0000000,0.0000000,0.0020556,0.0000000,0.0000000,0.0000000,0.0077857,0.0000000,0.0000000,0.0020556
24.2731720,1.0001000,,-0.9596195,-0.2812969,0.0003506,0.0015565,-0.0013438,-0.0012700,-0.0028984,,,,2.1432741,-6.9281516,-21.3700905,0.0000000,0.0000000,0.0000000,0.0200020,0.0600348,0.0000000,0.0000000,0.0078269,0.0000000,0.0000000,0.0000000,0.0600348,0.0000000,0.0000000,0.0078269,0.0000000,0.0000000,0.0000000,0.0600348,0.0000000,0.0000000,0.0078269,0.0078269,0.0000000,0.0000000,0.0020610,0.0000000,0.0000000,0.0000000,0.0078269,0.0000000,0.0000000,0.0020610,0.0000000,0.0000000,0.0000000,0.0078269,0.0000000,0.0000000,0.0020610
24.2918850,0.9999000,,-0.9596195,-0.2812969,0.0003491,0.0015775,0.0006785,-0.0080355,-0.0073086,,,,2.1432741,-6.9281516,-21.3700905,0.0000000,0.0000000,0.0000000,0.0199980,0.0603478,0.0000000,0.0000000,0.0078681,0.0000000,0.0000000,0.0000000,0.0603478,0.0000000,0.0000000,0.0078681,0.0000000,0.0000000,0.0000000,0.0603478,0.0000000,0.0000000,0.0078681,0.0078681,0.0000000,0.0000000,0.0020665,0.0000000,0.0000000,0.0000000,0.0078681,0.0000000,0.0000000,0.0020665,0.0000000,0.0000000,0.0000000,0.0078681,0.0000000,0.0000000,0.0020665
24.3118510,1.0001000,,-0.9596194,-0.2812969,0.0003296,0.0015834,-0.0039561,-0.0026445,-0.0043867,,,,2.1432741,-6.9281516,-21.3700905,0.0000000,0.0000000,0.0000000,0.0200020,0.0606626,0.0000000,0.0000000,0.0079095,0.0000000,0.0000000,0.0000000,0.0606626,0.0000000,0.0000000,0.0079095,0.0000000,0.0000000,0.0000000,0.0606626,0.0000000,0.0000000,0.0079095,0.0079095,0.0000000,0.0000000,0.0020720,0.0000000,0.0000000,0.0000000,0.0079095,0.0000000,0.0000000,0.0020720,0.0000000,0.0000000,0.0000000,0.0079095,0.0000000,0.0000000,0.0020720
24.3279780,,0.9999800,-0.9596194,-0.2812969,0.0003296,0.0015834,,,,0.0000000,0.0000000,0.0000000,2.1432741,-6.9281516,-21.3700905,0.0000000,0.0000000,0.0000000,0.0999980,0.0590046,0.0000000,0.0000000,0.0076933,0.0000000,0.0000000,0.0000000,0.0590046,0.0000000,0.0000000,0.0076933,0.0000000,0.0000000,0.0000000,0.0590046,0.0000000,0.0000000,0.0076933,0.0076933,0.0000000,0.0000000,0.0020438,0.0000000,0.0000000,0.0000000,0.0076933,0.0000000,0.0000000,0.0020438,0.0000000,0.0000000,0.0000000,0.0076933,0.0000000,0.0000000,0.0020438
24.3417160,1.0003999,,-0.9596194,-0.2812970,0.0003188,0.0015932,-0.0065252,-0.0026269,-0.0031699,,,,2.1432741,-6.9281516,-21.3700905,0.0000000,0.0000000,0.0000000,0.0200080,0.0593125,0.0000000,0.0000000,0.0077343,0.0000000,0.0000000,0.0000000,0.0593125,0.0000000,0.0000000,0.0077343,0.0000000,0.0000000,0.0000000,0.0593125,0.0000000,0.0000000,0.0077343,0.0077343,0.0000000,0.0000000,0.0020493,0.0000000,0.0000000,0.0000000,0.0077343,0.0000000,0.0000000,0.0020493,0.0000000,0.0000000,0.0000000,0.0077343,0.0000000,0.0000000,0.0020493
24.3548650,1.1495000,,-0.9596194,-0.2812970,0.0003102,0.0015949,-0.0041476,0.0005481,0.0015889,,,,2.1432741,-6.9281516,-21.3700905,0.0000000,0.0000000,0.0000000,0.0229900,0.0596681,0.0000000,0.0000000,0.0077815,0.0000000,0.0000000,0.0000000,0.0596681,0.0000000,0.0000000,0.0077815,0.0000000,0.0000000,0.0000000,0.0596681,0.0000000,0.0000000,0.0077815,0.0077815,0.0000000,0.0000000,0.0020556,0.0000000,0.0000000,0.0000000,0.0077815,0.0000000,0.0000000,0.0020556,0.0000000,0.0000000,0.0000000,0.0077815,0.0000000,0.0000000,0.0020556
24.3761500,1.0501001,,-0.9596194,-0.2812970,0.0003026,0.0015720,0.0016799,0.0033106,-0.0011587,,,,2.1432741,-6.9281516,-21.3700905,0.0000000,0.0000000,0.0000000,0.0210020,0.0599950,0.0000000,0.0000000,0.0078247,0.0000000,0.0000000,0.0000000,0.0599950,0.0000000,0.0000000,0.0078247,0.0000000,0.0000000,0.0000000,0.0599950,0.0000000,0.0000000,0.0078247,0.0078247,0.0000000,0.0000000,0.0020614,0.0000000,0.0000000,0.0000000,0.0078247,0.0000000,0.0000000,0.0020614,0.0000000,0.0000000,0.0000000,0.0078247,0.0000000,0.0000000,0.0020614
24.3958790,1.0003500,,-0.9596194,-0.2812969,0.0003245,0.0015859,0.0024345,-0.0028155,0.0079656,,,,2.1432741,-6.9281516,-21.3700905,0.0000000,0.0000000,0.0000000,0.0200070,0.0603081,0.0000000,0.0000000,0.0078660,0.0000000,0.0000000,0.0000000,0.0603081,0.0000000,0.0000000,0.0078660,0.0000000,0.0000000,0.0000000,0.0603081,0.0000000,0.0000000,0.0078660,0.0078660,0.0000000,0.0000000,0.0020669,0.0000000,0.0000000,0.0000000,0.0078660,0.0000000,0.0000000,0.0020669,0.0000000,0.0000000,0.0000000,0.0078660,0.0000000,0.0000000,0.0020669
24.4174750,,1.0100501,-0.9596194,-0.2812969,0.0003455,0.0016111,,,,0.0000000,0.0000000,0.0000000,2.1432741,-6.9281516,-21.3700905,0.0000000,0.0000000,0.0000000,0.1010050,0.0586692,0.0000000,0.0000000,0.0076522,0.0000000,0.0000000,0.0000000,0.0586692,0.0000000,0.0000000,0.0076522,0.0000000,0.0000000,0.0000000,0.0586692,0.0000000,0.0000000,0.0076522,0.0076522,0.0000000,0.0000000,0.0020390,0.0000000,0.0000000,0.0000000,0.0076522,0.0000000,0.0000000,0.0020390,0.0000000,0.0000000,0.0000000,0.0076522,0.0000000,0.0000000,0.0020390
24.4306180,0.9995500,,-0.9596194,-0.2812969,0.0003455,0.0016111,-0.0020634,-0.0063211,0.0037386,,,,2.1432741,-6.9281516,-21.3700905,0.0000000,0.0000000,0.0000000,0.0199910,0.0589752,0.0000000,0.0000000,0.0076931,0.0000000,0.0000000,0.0000000,0.0589752,0.0000000,0.0000000,0.0076931,0.0000000,0.0000000,0.0000000,0.0589752,0.0000000,0.0000000,0.0076931,0.0076931,0.0000000,0.0000000,0.0020445,0.0000000,0.0000000,0.0000000,0.0076931,0.0000000,0.0000000,0.0020445,0.0000000,0.0000000,0.0000000,0.0076931,0.0000000,0.0000000,0.0020445
24.4439200,1.4002000,,-0.9596193,-0.2812969,0.0003522,0.0016371,-0.0009096,-0.0073186,0.0011369,,,,2.1432741,-6.9281516,-21.3700905,0.0000000,0.0000000,0.0000000,0.0280040,0.0594060,0.0000000,0.0000000,0.0077504,0.0000000,0.0000000,0.0000000,0.0594060,0.0000000,0.0000000,0.0077504,0.0000000,0.0000000,0.0000000,0.0594060,0.0000000,0.0000000,0.0077504,0.0077504,0.0000000,0.0000000,0.0020521,0.0000000,0.0000000,0.0000000,0.0077504,0.0000000,0.0000000,0.0020521,0.0000000,0.0000000,0.0000000,0.0077504,0.0000000,0.0000000,0.0020521
24.4639960,1.0000501,,-0.9596193,-0.2812969,0.0003667,0.0016531,0.0006667,-0.0014620,0.0091134,,,,2.1432741,-6.9281516,-21.3700905,0.0000000,0.0000000,0.0000000,0.0200010,0.0597161,0.0000000,0.0000000,0.0077915,0.0000000,0.0000000,0.0000000,0.0597161,0.0000000,0.0000000,0.0077915,0.0000000,0.0000000,0.0000000,0.0597161,0.0000000,0.0000000,0.0077915,0.0077915,0.0000000,0.0000000,0.0020576,0.0000000,0.0000000,0.0000000,0.0077915,0.0000000,0.0000000,0.0020576,0.0000000,0.0000000,0.0000000,0.0077915,0.0000000,0.0000000,0.0020576
24.4835600,0.9998500,,-0.9596193,-0.2812968,0.0003831,0.0016637,0.0019584,-0.0014482,0.0057774,,,,2.1432741,-6.9281516,-21.3700905,0.0000000,0.0000000,0.0000000,0.0199970,0.0600277,0.0000000,0.0000000,0.0078327,0.0000000,0.0000000,0.0000000,0.0600277,0.0000000,0.0000000,0.0078327,0.0000000,0.0000000,0.0000000,0.0600277,0.0000000,0.0000000,0.0078327,0.0078327,0.0000000,0.0000000,0.0020631,0.0000000,0.0000000,0.0000000,0.0078327,0.0000000,0.0000000,0.0020631,0.0000000,0.0000000,0.0000000,0.0078327,0.0000000,0.0000000,0.0020631
24.5047870,1.0500500,,-0.9596192,-0.2812968,0.0003717,0.0016880,0.0049999,-0.0014184,-0.0015058,,,,2.1432741,-6.9281516,-21.3700905,0.0000000,0.0000000,0.0000000,0.0210010,0.0603567,0.0000000,0.0000000,0.0078761,0.0000000,0.0000000,0.0000000,0.0603567,0.0000000,0.0000000,0.0078761,0.0000000,0.0000000,0.0000000,0.0603567,0.0000000,0.0000000,0.0078761,0.0078761,0.0000000,0.0000000,0.0020689,0.0000000,0.0000000,0.0000000,0.0078761,0.0000000,0.0000000,0.0020689,0.0000000,0.0000000,0.0000000,0.0078761,0.0000000,0.0000000,0.0020689
24.5211200,,1.0200200,-0.9596192,-0.2812968,0.0003717,0.0016880,,,,0.0000000,0.0000000,0.0000000,2.1432741,-6.9281516,-21.3700905,0.0000000,0.0000000,0.0000000,0.1020020,0.0587152,0.0000000,0.0000000,0.0076619,0.0000000,0.0000000,0.0000000,0.0587152,0.0000000,0.0000000,0.0076619,0.0000000,0.0000000,0.0000000,0.0587152,0.0000000,0.0000000,0.0076619,0.0076619,0.0000000,0.0000000,0.0020409,0.0000000,0.0000000,0.0000000,0.0076619,0.0000000,0.0000000,0.0020409,0.0000000,0.0000000,0.0000000,0.0076619,0.0000000,0.0000000,0.0020409
24.5348650,1.0999000,,-0.9596192,-0.2812969,0.0003434,0.0017271,0.0089010,-0.0050274,-0.0029502,,,,2.1432741,-6.9281516,-21.3700905,0.0000000,0.0000000,0.0000000,0.0219980,0.0590523,0.0000000,0.0000000,0.0077068,0.0000000,0.0000000,0.0000000,0.0590523,0.0000000,0.0000000,0.0077068,0.0000000,0.0000000,0.0000000,0.0590523,0.0000000,0.0000000,0.0077068,0.0077068,0.0000000,0.0000000,0.0020469,0.0000000,0.0000000,0.0000000,0.0077068,0.0000000,0.0000000,0.0020469,0.0000000,0.0000000,0.0000000,0.0077068,0.0000000,0.0000000,0.0020469
24.5478810,1.0499500,,-0.9596191,-0.2812970,0.0003008,0.0017492,0.0054271,-0.0004919,-0.0026958,,,,2.1432741,-6.9281516,-21.3700905,0.0000000,0.0000000,0.0000000,0.0209990,0.0593760,0.0000000,0.0000000,0.0077499,0.0000000,0.0000000,0.0000000,0.0593760,0.0000000,0.0000000,0.0077499,0.0000000,0.0000000,0.0000000,0.0593760,0.0000000,0.0000000,0.0077499,0.0077499,0.0000000,0.0000000,0.0020527,0.0000000,0.0000000,0.0000000,0.0077499,0.0000000,0.0000000,0.0020527,0.0000000,0.0000000,0.0000000,0.0077499,0.0000000,0.0000000,0.0020527
24.5679140,1.0003999,,-0.9596190,-0.2812970,0.0002809,0.0017790,-0.0029093,-0.0057544,0.0030466,,,,2.1432741,-6.9281516,-21.3700905,0.0000000,0.0000000,0.0000000,0.0200080,0.0596861,0.0000000,0.0000000,0.0077910,0.0000000,0.0000000,0.0000000,0.0596861,0.0000000,0.0000000,0.0077910,0.0000000,0.0000000,0.0000000,0.0596861,0.0000000,0.0000000,0.0077910,0.0077910,0.0000000,0.0000000,0.0020582,0.0000000,0.0000000,0.0000000,0.0077910,0.0000000,0.0000000,0.0020582,0.0000000,0.0000000,0.0000000,0.0077910,0.0000000,0.0000000,0.0020582
24.5879230,0.9996000,,-0.9596190,-0.2812970,0.0002837,0.0017976,-0.0031484,-0.0051965,0.0000585,,,,2.1432741,-6.9281516,-21.3700905,0.0000000,0.0000000,0.0000000,0.0199920,0.0599976,0.0000000,0.0000000,0.0078322,0.0000000,0.0000000,0.0000000,0.0599976,0.0000000,0.0000000,0.0078322,0.0000000,0.0000000,0.0000000,0.0599976,0.0000000,0.0000000,0.0078322,0.0078322,0.0000000,0.0000000,0.0020637,0.0000000,0.0000000,0.0000000,0.0078322,0.0000000,0.0000000,0.0020637,0.0000000,0.0000000,0.0000000,0.0078322,0.0000000,0.0000000,0.0020637
24.6075430,1.0001000,,-0.9596190,-0.2812970,0.0003042,0.0018143,-0.0000636,-0.0022092,0.0034472,,,,2.1432741,-6.9281516,-21.3700905,0.0000000,0.0000000,0.0000000,0.0200020,0.0603109,0.0000000,0.0000000,0.0078735,0.0000000,0.0000000,0.0000000,0.0603109,0.0000000,0.0000000,0.0078735,0.0000000,0.0000000,0.0000000,0.0603109,0.0000000,0.0000000,0.0078735,0.0078735,0.0000000,0.0000000,0.0020692,0.0000000,0.0000000,0.0000000,0.0078735,0.0000000,0.0000000,0.0020692,0.0000000,0.0000000,0.0000000,0.0078735,0.0000000,0.0000000,0.0020692
24.6243210,,0.9999600,-0.9596190,-0.2812970,0.0003042,0.0018143,,,,0.0000000,0.0000000,0.0000000,2.1432741,-6.9281516,-21.3700905,0.0000000,0.0000000,0.0000000,0.0999960,0.0586719,0.0000000,0.0000000,0.0076596,0.0000000,0.0000000,0.0000000,0.0586719,0.0000000,0.0000000,0.0076596,0.0000000,0.0000000,0.0000000,0.0586719,0.0000000,0.0000000,0.0076596,0.0076596,0.0000000,0.0000000,0.0020412,0.0000000,0.0000000,0.0000000,0.0076596,0.0000000,0.0000000,0.0020412,0.0000000,0.0000000,0.0000000,0.0076596,0.0000000,0.0000000,0.0020412
24.6377530,1.1009500,,-0.9596190,-0.2812969,0.0003238,0.0018270,0.0056445,0.0029619,-0.0016944,,,,2.1432741,-6.9281516,-21.3700905,0.0000000,0.0000000,0.0000000,0.0220190,0.0590092,0.0000000,0.0000000,0.0077046,0.0000000,0.0000000,0.0000000,0.0590092,0.0000000,0.0000000,0.0077046,0.0000000,0.0000000,0.0000000,0.0590092,0.0000000,0.0000000,0.0077046,0.0077046,0.0000000,0.0000000,0.0020473,0.0000000,0.0000000,0.0000000,0.0077046,0.0000000,0.0000000,0.0020473,0.0000000,0.0000000,0.0000000,0.0077046,0.0000000,0.0000000,0.0020473
24.6511070,1.0490000,,-0.9596190,-0.2812970,0.0003167,0.0018368,0.0052865,0.0067605,0.0020825,,,,2.1432741,-6.9281516,-21.3700905,0.0000000,0.0000000,0.0000000,0.0209800,0.0593325,0.0000000,0.0000000,0.0077476,0.0000000,0.0000000,0.0000000,0.0593325,0.0000000,0.0000000,0.0077476,0.0000000,0.0000000,0.0000000,0.0593325,0.0000000,0.0000000,0.0077476,0.0077476,0.0000000,0.0000000,0.0020530,0.0000000,0.0000000,0.0000000,0.0077476,0.0000000,0.0000000,0.0020530,0.0000000,0.0000000,0.0000000,0.0077476,0.0000000,0.0000000,0.0020530
24.6709930,1.0003500,,-0.9596190,-0.2812970,0.0003184,0.0018271,0.0009801,0.0076603,0.0059241,,,,2.1432741,-6.9281516,-21.3700905,0.0000000,0.0000000,0.0000000,0.0200070,0.0596425,0.0000000,0.0000000,0.0077887,0.0000000,0.0000000,0.0000000,0.0596425,0.0000000,0.0000000,0.0077887,0.0000000,0.0000000,0.0000000,0.0596425,0.0000000,0.0000000,0.0077887,0.0077887,0.0000000,0.0000000,0.0020585,0.0000000,0.0000000,0.0000000,0.0077887,0.0000000,0.0000000,0.0020585,0.0000000,0.0000000,0.0000000,0.0077887,0.0000000,0.0000000,0.0020585
24.6909940,1.0002000,,-0.9596189,-0.2812970,0.0003143,0.0018348,0.0029620,0.0052035,0.0056476,,,,2.1432741,-6.9281516,-21.3700905,0.0000000,0.0000000,0.0000000,0.0200040,0.0599541,0.0000000,0.0000000,0.0078299,0.0000000,0.0000000,0.0000000,0.0599541,0.0000000,0.0000000,0.0078299,0.0000000,0.0000000,0.0000000,0.0599541,0.0000000,0.0000000,0.0078299,0.0078299,0.0000000,0.0000000,0.0020640,0.0000000,0.0000000,0.0000000,0.0078299,0.0000000,0.0000000,0.0020640,0.0000000,0.0000000,0.0000000,0.0078299,0.0000000,0.0000000,0.0020640
24.7108660,1.0000000,,-0.9596190,-0.2812969,0.0003303,0.0018160,-0.0050345,0.0063783,0.0108804,,,,2.1432741,-6.9281516,-21.3700905,0.0000000,0.0000000,0.0000000,0.0200000,0.0602673,0.0000000,0.0000000,0.0078713,0.0000000,0.0000000,0.0000000,0.0602673,0.0000000,0.0000000,0.0078713,0.0000000,0.0000000,0.0000000,0.0602673,0.0000000,0.0000000,0.0078713,0.0078713,0.0000000,0.0000000,0.0020695,0.0000000,0.0000000,0.0000000,0.0078713,0.0000000,0.0000000,0.0020695,0.0000000,0.0000000,0.0000000,0.0078713,0.0000000,0.0000000,0.0020695
24.7276230,,1.0199900,-0.9596190,-0.2812969,0.0003303,0.0018160,,,,0.0000000,0.0000000,0.0000000,2.1432741,-6.9281516,-21.3700905,0.0000000,0.0000000,0.0000000,0.1019990,0.0586306,0.0000000,0.0000000,0.0076575,0.0000000,0.0000000,0.0000000,0.0586306,0.0000000,0.0000000,0.0076575,0.0000000,0.0000000,0.0000000,0.0586306,0.0000000,0.0000000,0.0076575,0.0076575,0.0000000,0.0000000,0.0020416,0.0000000,0.0000000,0.0000000,0.0076575,0.0000000,0.0000000,0.0020416,0.0000000,0.0000000,0.0000000,0.0076575,0.0000000,0.0000000,0.0020416
24.7413450,1.0999000,,-0.9596190,-0.2812969,0.0003458,0.0018214,-0.0053630,0.0004120,0.0044637,,,,2.1432741,-6.9281516,-21.3700905,0.0000000,0.0000000,0.0000000,0.0219980,0.0589675,0.0000000,0.0000000,0.0077025,0.0000000,0.0000000,0.0000000,0.0589675,0.0000000,0.0000000,0.0077025,0.0000000,0.0000000,0.0000000,0.0589675,0.0000000,0.0000000,0.0077025,0.0077025,0.0000000,0.0000000,0.0020476,0.0000000,0.0000000,0.0000000,0.0077025,0.0000000,0.0000000,0.0020476,0.0000000,0.0000000,0.0000000,0.0077025,0.0000000,0.0000000,0.0020476
24.7549790,1.0994999,,-0.9596190,-0.2812969,0.0003606,0.0018247,-0.0042989,-0.0006180,0.0029642,,,,2.1432741,-6.9281516,-21.3700905,0.0000000,0.0000000,0.0000000,0.0219900,0.0593063,0.0000000,0.0000000,0.0077476,0.0000000,0.0000000,0.0000000,0.0593063,0.0000000,0.0000000,0.0077476,0.0000000,0.0000000,0.0000000,0.0593063,0.0000000,0.0000000,0.0077476,0.0077476,0.0000000,0.0000000,0.0020536,0.0000000,0.0000000,0.0000000,0.0077476,0.0000000,0.0000000,0.0020536,0.0000000,0.0000000,0.0000000,0.0077476,0.0000000,0.0000000,0.0020536
24.7750890,1.0004500,,-0.9596190,-0.2812969,0.0003591,0.0018289,-0.0072001,-0.0016212,0.0031911,,,,2.1432741,-6.9281516,-21.3700905,0.0000000,0.0000000,0.0000000,0.0200090,0.0596163,0.0000000,0.0000000,0.0077887,0.0000000,0.0000000,0.0000000,0.0596163,0.0000000,0.0000000,0.0077887,0.0000000,0.0000000,0.0000000,0.0596163,0.0000000,0.0000000,0.0077887,0.0077887,0.0000000,0.0000000,0.0020591,0.0000000,0.0000000,0.0000000,0.0077887,0.0000000,0.0000000,0.0020591,0.0000000,0.0000000,0.0000000,0.0077887,0.0000000,0.0000000,0.0020591
24.7950440,0.9999000,,-0.9596189,-0.2812969,0.0003710,0.0018472,-0.0047292,-0.0055027,0.0050135,,,,2.1432741,-6.9281516,-21.3700905,0.0000000,0.0000000,0.0000000,0.0199980,0.0599279,0.0000000,0.0000000,0.0078299,0.0000000,0.0000000,0.0000000,0.0599279,0.0000000,0.0000000,0.0078299,0.0000000,0.0000000,0.0000000,0.0599279,0.0000000,0.0000000,0.0078299,0.0078299,0.0000000,0.0000000,0.0020646,0.0000000,0.0000000,0.0000000,0.0078299,0.0000000,0.0000000,0.0020646,0.0000000,0.0000000,0.0000000,0.0078299,0.0000000,0.0000000,0.0020646
24.8147610,1.0000000,,-0.9596189,-0.2812968,0.0003845,0.0018833,0.0006566,-0.0056734,0.0020185,,,,2.1432741,-6.9281516,-21.3700905,0.0000000,0.0000000,0.0000000,0.0200000,0.0602411,0.0000000,0.0000000,0.0078713,0.0000000,0.0000000,0.0000000,0.0602411,0.0000000,0.0000000,0.0078713,0.0000000,0.0000000,0.0000000,0.0602411,0.0000000,0.0000000,0.0078713,0.0078713,0.0000000,0.0000000,0.0020701,0.0000000,0.0000000,0.0000000,0.0078713,0.0000000,0.0000000,0.0020701,0.0000000,0.0000000,0.0000000,0.0078713,0.0000000,0.0000000,0.0020701
24.8322500,,1.0200200,-0.9596189,-0.2812968,0.0003845,0.0018833,,,,0.0000000,0.0000000,0.0000000,2.1432741,-6.9281516,-21.3700905,0.0000000,0.0000000,0.0000000,0.1020020,0.0586058,0.0000000,0.0000000,0.0076576,0.0000000,0.0000000,0.0000000,0.0586058,0.0000000,0.0000000,0.0076576,0.0000000,0.0000000,0.0000000,0.0586058,0.0000000,0.0000000,0.0076576,0.0076576,0.0000000,0.0000000,0.0020422,0.0000000,0.0000000,0.0000000,0.0076576,0.0000000,0.0000000,0.0020422,0.0000000,0.0000000,0.0000000,0.0076576,0.0000000,0.0000000,0.0020422
24.8455970,0.9998000,,-0.9596188,-0.2812968,0.0003871,0.0019042,0.0001681,-0.0020967,0.0005210,,,,2.1432741,-6.9281516,-21.3700905,0.0000000,0.0000000,0.0000000,0.0199960,0.0589120,0.0000000,0.0000000,0.0076985,0.0000000,0.0000000,0.0000000,0.0589120,0.0000000,0.0000000,0.0076985,0.0000000,0.0000000,0.0000000,0.0589120,0.0000000,0.0000000,0.0076985,0.0076985,0.0000000,0.0000000,0.0020476,0.0000000,0.0000000,0.0000000,0.0076985,0.0000000,0.0000000,0.0020476,0.0000000,0.0000000,0.0000000,0.0076985,0.0000000,0.0000000,0.0020476
24.8589830,1.2003000,,-0.9596188,-0.2812968,0.0003808,0.0019301,-0.0001067,-0.0012619,-0.0019368,,,,2.1432741,-6.9281516,-21.3700905,0.0000000,0.0000000,0.0000000,0.0240060,0.0592817,0.0000000,0.0000000,0.0077477,0.0000000,0.0000000,0.0000000,0.0592817,0.0000000,0.0000000,0.0077477,0.0000000,0.0000000,0.0000000,0.0592817,0.0000000,0.0000000,0.0077477,0.0077477,0.0000000,0.0000000,0.0020542,0.0000000,0.0000000,0.0000000,0.0077477,0.0000000,0.0000000,0.0020542,0.0000000,0.0000000,0.0000000,0.0077477,0.0000000,0.0000000,0.0020542
24.8800680,1.0499500,,-0.9596188,-0.2812968,0.0003768,0.0019415,-0.0007324,-0.0010887,-0.0031657,,,,2.1432741,-6.9281516,-21.3700905,0.0000000,0.0000000,0.0000000,0.0209990,0.0596070,0.0000000,0.0000000,0.0077909,0.0000000,0.0000000,0.0000000,0.0596070,0.0000000,0.0000000,0.0077909,0.0000000,0.0000000,0.0000000,0.0596070,0.0000000,0.0000000,0.0077909,0.0077909,0.0000000,0.0000000,0.0020600,0.0000000,0.0000000,0.0000000,0.0077909,0.0000000,0.0000000,0.0020600,0.0000000,0.0000000,0.0000000,0.0077909,0.0000000,0.0000000,0.0020600
24.9000140,0.9996000,,-0.9596187,-0.2812968,0.0003749,0.0019569,-0.0056839,-0.0007427,0.0025676,,,,2.1432741,-6.9281516,-21.3700905,0.0000000,0.0000000,0.0000000,0.0199920,0.0599186,0.0000000,0.0000000,0.0078322,0.0000000,0.0000000,0.0000000,0.0599186,0.0000000,0.0000000,0.0078322,0.0000000,0.0000000,0.0000000,0.0599186,0.0000000,0.0000000,0.0078322,0.0078322,0.0000000,0.0000000,0.0020655,0.0000000,0.0000000,0.0000000,0.0078322,0.0000000,0.0000000,0.0020655,0.0000000,0.0000000,0.0000000,0.0078322,0.0000000,0.0000000,0.0020655
24.9219980,,0.9999700,-0.9596187,-0.2812969,0.0003536,0.0019738,,,,0.0000000,0.0000000,0.0000000,2.1432741,-6.9281516,-21.3700905,0.0000000,0.0000000,0.0000000,0.0999970,0.0583005,0.0000000,0.0000000,0.0076207,0.0000000,0.0000000,0.0000000,0.0583005,0.0000000,0.0000000,0.0076207,0.0000000,0.0000000,0.0000000,0.0583005,0.0000000,0.0000000,0.0076207,0.0076207,0.0000000,0.0000000,0.0020378,0.0000000,0.0000000,0.0000000,0.0076207,0.0000000,0.0000000,0.0020378,0.0000000,0.0000000,0.0000000,0.0076207,0.0000000,0.0000000,0.0020378
24.9361390,1.0507500,,-0.9596187,-0.2812969,0.0003536,0.0019738,0.0020485,-0.0056891,0.0007955,,,,2.1432741,-6.9281516,-21.3700905,0.0000000,0.0000000,0.0000000,0.0210150,0.0586208,0.0000000,0.0000000,0.0076635,0.0000000,0.0000000,0.0000000,0.0586208,0.0000000,0.0000000,0.0076635,0.0000000,0.0000000,0.0000000,0.0586208,0.0000000,0.0000000,0.0076635,0.0076635,0.0000000,0.0000000,0.0020436,0.0000000,0.0000000,0.0000000,0.0076635,0.0000000,0.0000000,0.0020436,0.0000000,0.0000000,0.0000000,0.0076635,0.0000000,0.0000000,0.0020436
24.9506770,1.4992501,,-0.9596187,-0.2812970,0.0003197,0.0019762,0.0039158,-0.0020816,-0.0017995,,,,2.1432741,-6.9281516,-21.3700905,0.0000000,0.0000000,0.0000000,0.0299850,0.0590804,0.0000000,0.0000000,0.0077249,0.0000000,0.0000000,0.0000000,0.0590804,0.0000000,0.0000000,0.0077249,0.0000000,0.0000000,0.0000000,0.0590804,0.0000000,0.0000000,0.0077249,0.0077249,0.0000000,0.0000000,0.0020518,0.0000000,0.0000000,0.0000000,0.0077249,0.0000000,0.0000000,0.0020518,0.0000000,0.0000000,0.0000000,0.0077249,0.0000000,0.0000000,0.0020518
24.9718330,1.0501001,,-0.9596187,-0.2812970,0.0003009,0.0019686,0.0065661,0.0026366,-0.0006556,,,,2.1432741,-6.9281516,-21.3700905,0.0000000,0.0000000,0.0000000,0.0210020,0.0594049,0.0000000,0.0000000,0.0077681,0.0000000,0.0000000,0.0000000,0.0594049,0.0000000,0.0000000,0.0077681,0.0000000,0.0000000,0.0000000,0.0594049,0.0000000,0.0000000,0.0077681,0.0077681,0.0000000,0.0000000,0.0020576,0.0000000,0.0000000,0.0000000,0.0077681,0.0000000,0.0000000,0.0020576,0.0000000,0.0000000,0.0000000,0.0077681,0.0000000,0.0000000,0.0020576
24.9926610,1.0499500,,-0.9596187,-0.2812970,0.0003130,0.0019786,0.0015740,-0.0047318,0.0026019,,,,2.1432741,-6.9281516,-21.3700905,0.0000000,0.0000000,0.0000000,0.0209990,0.0597311,0.0000000,0.0000000,0.0078113,0.0000000,0.0000000,0.0000000,0.0597311,0.0000000,0.0000000,0.0078113,0.0000000,0.0000000,0.0000000,0.0597311,0.0000000,0.0000000,0.0078113,0.0078113,0.0000000,0.0000000,0.0020633,0.0000000,0.0000000,0.0000000,0.0078113,0.0000000,0.0000000,0.0020633,0.0000000,0.0000000,0.0000000,0.0078113,0.0000000,0.0000000,0.0020633
25.0140710,1.0500500,,-0.9596187,-0.2812969,0.0003436,0.0019845,0.0030301,-0.0015648,-0.0018729,,,,2.1432741,-6.9281516,-21.3700905,0.0000000,0.0000000,0.0000000,0.0210010,0.0600592,0.0000000,0.0000000,0.0078547,0.0000000,0.0000000,0.0000000,0.0600592,0.0000000,0.0000000,0.0078547,0.0000000,0.0000000,0.0000000,0.0600592,0.0000000,0.0000000,0.0078547,0.0078547,0.0000000,0.0000000,0.0020691,0.0000000,0.0000000,0.0000000,0.0078547,0.0000000,0.0000000,0.0020691,0.0000000,0.0000000,0.0000000,0.0078547,0.0000000,0.0000000,0.0020691
25.0298150,,1.0200000,-0.9596187,-0.2812969,0.0003436,0.0019845,,,,0.0000000,0.0000000,0.0000000,2.1432741,-6.9281516,-21.3700905,0.0000000,0.0000000,0.0000000,0.1020000,0.0584337,0.0000000,0.0000000,0.0076421,0.0000000,0.0000000,0.0000000,0.0584337,0.0000000,0.0000000,0.0076421,0.0000000,0.0000000,0.0000000,0.0584337,0.0000000,0.0000000,0.0076421,0.0076421,0.0000000,0.0000000,0.0020413,0.0000000,0.0000000,0.0000000,0.0076421,0.0000000,0.0000000,0.0020413,0.0000000,0.0000000,0.0000000,0.0076421,0.0000000,0.0000000,0.0020413
25.0437440,1.0002999,,-0.9596186,-0.2812969,0.0003442,0.0020233,0.0029799,-0.0111508,-0.0004482,,,,2.1432741,-6.9281516,-21.3700905,0.0000000,0.0000000,0.0000000,0.0200060,0.0587394,0.0000000,0.0000000,0.0076830,0.0000000,0.0000000,0.0000000,0.0587394,0.0000000,0.0000000,0.0076830,0.0000000,0.0000000,0.0000000,0.0587394,0.0000000,0.0000000,0.0076830,0.0076830,0.0000000,0.0000000,0.0020468,0.0000000,0.0000000,0.0000000,0.0076830,0.0000000,0.0000000,0.0020468,0.0000000,0.0000000,0.0000000,0.0076830,0.0000000,0.0000000,0.0020468
25.0567610,1.1496000,,-0.9596186,-0.2812970,0.0003362,0.0020110,-0.0016839,0.0042513,0.0017290,,,,2.1432741,-6.9281516,-21.3700905,0.0000000,0.0000000,0.0000000,0.0229920,0.0590927,0.0000000,0.0000000,0.0077301,0.0000000,0.0000000,0.0000000,0.0590927,0.0000000,0.0000000,0.0077301,0.0000000,0.0000000,0.0000000,0.0590927,0.0000000,0.0000000,0.0077301,0.0077301,0.0000000,0.0000000,0.0020531,0.0000000,0.0000000,0.0000000,0.0077301,0.0000000,0.0000000,0.0020531,0.0000000,0.0000000,0.0000000,0.0077301,0.0000000,0.0000000,0.0020531
25.0777910,1.0501001,,-0.9596185,-0.2812969,0.0003459,0.0020446,-0.0025433,-0.0067626,-0.0071921,,,,2.1432741,-6.9281516,-21.3700905,0.0000000,0.0000000,0.0000000,0.0210020,0.0594174,0.0000000,0.0000000,0.0077733,0.0000000,0.0000000,0.0000000,0.0594174,0.0000000,0.0000000,0.0077733,0.0000000,0.0000000,0.0000000,0.0594174,0.0000000,0.0000000,0.0077733,0.0077733,0.0000000,0.0000000,0.0020588,0.0000000,0.0000000,0.0000000,0.0077733,0.0000000,0.0000000,0.0020588,0.0000000,0.0000000,0.0000000,0.0077733,0.0000000,0.0000000,0.0020588
25.0988190,1.0501001,,-0.9596184,-0.2812969,0.0003473,0.0020662,0.0004297,-0.0027404,-0.0004222,,,,2.1432741,-6.9281516,-21.3700905,0.0000000,0.0000000,0.0000000,0.0210020,0.0597439,0.0000000,0.0000000,0.0078166,0.0000000,0.0000000,0.0000000,0.0597439,0.0000000,0.0000000,0.0078166,0.0000000,0.0000000,0.0000000,0.0597439,0.0000000,0.0000000,0.0078166,0.0078166,0.0000000,0.0000000,0.0020646,0.0000000,0.0000000,0.0000000,0.0078166,0.0000000,0.0000000,0.0020646,0.0000000,0.0000000,0.0000000,0.0078166,0.0000000,0.0000000,0.0020646
25.1213290,1.0501500,,-0.9596184,-0.2812969,0.0003442,0.0020867,0.0021527,-0.0048645,-0.0004553,,,,2.1432741,-6.9281516,-21.3700905,0.0000000,0.0000000,0.0000000,0.0210030,0.0600723,0.0000000,0.0000000,0.0078600,0.0000000,0.0000000,0.0000000,0.0600723,0.0000000,0.0000000,0.0078600,0.0000000,0.0000000,0.0000000,0.0600723,0.0000000,0.0000000,0.0078600,0.0078600,0.0000000,0.0000000,0.0020703,0.0000000,0.0000000,0.0000000,0.0078600,0.0000000,0.0000000,0.0020703,0.0000000,0.0000000,0.0000000,0.0078600,0.0000000,0.0000000,0.0020703
25.1371350,,1.0000600,-0.9596184,-0.2812969,0.0003442,0.0020841,,,,0.0000000,0.0000000,0.0000000,2.1432741,-6.9281516,-21.3700905,0.0000000,0.0000000,0.0000000,0.1000060,0.0584460,0.0000000,0.0000000,0.0076472,0.0000000,0.0000000,0.0000000,0.0584460,0.0000000,0.0000000,0.0076472,0.0000000,0.0000000,0.0000000,0.0584460,0.0000000,0.0000000,0.0076472,0.0076472,0.0000000,0.0000000,0.0020425,0.0000000,0.0000000,0.0000000,0.0076472,0.0000000,0.0000000,0.0020425,0.0000000,0.0000000,0.0000000,0.0076472,0.0000000,0.0000000,0.0020425
25.1512540,0.9997000,,-0.9596184,-0.2812970,0.0003246,0.0020841,0.0078665,-0.0000976,-0.0016925,,,,2.1432741,-6.9281516,-21.3700905,0.0000000,0.0000000,0.0000000,0.0199940,0.0587518,0.0000000,0.0000000,0.0076881,0.0000000,0.0000000,0.0000000,0.0587518,0.0000000,0.0000000,0.0076881,0.0000000,0.0000000,0.0000000,0.0587518,0.0000000,0.0000000,0.0076881,0.0076881,0.0000000,0.0000000,0.0020480,0.0000000,0.0000000,0.0000000,0.0076881,0.0000000,0.0000000,0.0020480,0.0000000,0.0000000,0.0000000,0.0076881,0.0000000,0.0000000,0.0020480
25.1647990,1.2502500,,-0.9596184,-0.2812971,0.0002790,0.0020907,0.0043071,0.0022781,0.0037924,,,,2.1432741,-6.9281516,-21.3700905,0.0000000,0.0000000,0.0000000,0.0250050,0.0591363,0.0000000,0.0000000,0.0077394,0.0000000,0.0000000,0.0000000,0.0591363,0.0000000,0.0000000,0.0077394,0.0000000,0.0000000,0.0000000,0.0591363,0.0000000,0.0000000,0.0077394,0.0077394,0.0000000,0.0000000,0.0020548,0.0000000,0.0000000,0.0000000,0.0077394,0.0000000,0.0000000,0.0020548,0.0000000,0.0000000,0.0000000,0.0077394,0.0000000,0.0000000,0.0020548
25.1856810,1.0502001,,-0.9596184,-0.2812971,0.0002597,0.0020918,0.0044881,0.0054192,0.0067790,,,,2.1432741,-6.9281516,-21.3700905,0.0000000,0.0000000,0.0000000,0.0210040,0.0594614,0.0000000,0.0000000,0.0077826,0.0000000,0.0000000,0.0000000,0.0594614,0.0000000,0.0000000,0.0077826,0.0000000,0.0000000,0.0000000,0.0594614,0.0000000,0.0000000,0.0077826,0.0077826,0.0000000,0.0000000,0.0020606,0.0000000,0.0000000,0.0000000,0.0077826,0.0000000,0.0000000,0.0020606,0.0000000,0.0000000,0.0000000,0.0077826,0.0000000,0.0000000,0.0020606
25.2066770,1.0496501,,-0.9596184,-0.2812971,0.0002378,0.0021106,-0.0008306,0.0023739,0.0046102,,,,2.1432741,-6.9281516,-21.3700905,0.0000000,0.0000000,0.0000000,0.0209930,0.0597882,0.0000000,0.0000000,0.0078259,0.0000000,0.0000000,0.0000000,0.0597882,0.0000000,0.0000000,0.0078259,0.0000000,0.0000000,0.0000000,0.0597882,0.0000000,0.0000000,0.0078259,0.0078259,0.0000000,0.0000000,0.0020663,0.0000000,0.0000000,0.0000000,0.0078259,0.0000000,0.0000000,0.0020663,0.0000000,0.0000000,0.0000000,0.0078259,0.0000000,0.0000000,0.0020663
25.2236280,,0.9999300,-0.9596184,-0.2812971,0.0002378,0.0021093,,,,0.0000000,0.0000000,0.0000000,2.1432741,-6.9281516,-21.3700905,0.0000000,0.0000000,0.0000000,0.0999930,0.0581771,0.0000000,0.0000000,0.0076151,0.0000000,0.0000000,0.0000000,0.0581771,0.0000000,0.0000000,0.0076151,0.0000000,0.0000000,0.0000000,0.0581771,0.0000000,0.0000000,0.0076151,0.0076151,0.0000000,0.0000000,0.0020387,0.0000000,0.0000000,0.0000000,0.0076151,0.0000000,0.0000000,0.0020387,0.0000000,0.0000000,0.0000000,0.0076151,0.0000000,0.0000000,0.0020387
25.2375080,1.0001000,,-0.9596183,-0.2812972,0.0002133,0.0021093,0.0045514,0.0042463,0.0013285,,,,2.1432741,-6.9281516,-21.3700905,0.0000000,0.0000000,0.0000000,0.0200020,0.0584817,0.0000000,0.0000000,0.0076559,0.0000000,0.0000000,0.0000000,0.0584817,0.0000000,0.0000000,0.0076559,0.0000000,0.0000000,0.0000000,0.0584817,0.0000000,0.0000000,0.0076559,0.0076559,0.0000000,0.0000000,0.0020442,0.0000000,0.0000000,0.0000000,0.0076559,0.0000000,0.0000000,0.0020442,0.0000000,0.0000000,0.0000000,0.0076559,0.0000000,0.0000000,0.0020442
25.2504380,1.1997501,,-0.9596183,-0.2812973,0.0001923,0.0021209,0.0037940,0.0064185,0.0089651,,,,2.1432741,-6.9281516,-21.3700905,0.0000000,0.0000000,0.0000000,0.0239950,0.0588491,0.0000000,0.0000000,0.0077050,0.0000000,0.0000000,0.0000000,0.0588491,0.0000000,0.0000000,0.0077050,0.0000000,0.0000000,0.0000000,0.0588491,0.0000000,0.0000000,0.0077050,0.0077050,0.0000000,0.0000000,0.0020508,0.0000000,0.0000000,0.0000000,0.0077050,0.0000000,0.0000000,0.0020508,0.0000000,0.0000000,0.0000000,0.0077050,0.0000000,0.0000000,0.0020508
25.2717570,1.0501500,,-0.9596183,-0.2812973,0.0001969,0.0021307,-0.0043667,-0.0007809,0.0066798,,,,2.1432741,-6.9281516,-21.3700905,0.0000000,0.0000000,0.0000000,0.0210030,0.0591728,0.0000000,0.0000000,0.0077481,0.0000000,0.0000000,0.0000000,0.0591728,0.0000000,0.0000000,0.0077481,0.0000000,0.0000000,0.0000000,0.0591728,0.0000000,0.0000000,0.0077481,0.0077481,0.0000000,0.0000000,0.0020566,0.0000000,0.0000000,0.0000000,0.0077481,0.0000000,0.0000000,0.0020566,0.0000000,0.0000000,0.0000000,0.0077481,0.0000000,0.0000000,0.0020566
25.2916830,0.9998500,,-0.9596183,-0.2812972,0.0002163,0.0021377,-0.0018248,0.0002733,0.0026075,,,,2.1432741,-6.9281516,-21.3700905,0.0000000,0.0000000,0.0000000,0.0199970,0.0594827,0.0000000,0.0000000,0.0077893,0.0000000,0.0000000,0.0000000,0.0594827,0.0000000,0.0000000,0.0077893,0.0000000,0.0000000,0.0000000,0.0594827,0.0000000,0.0000000,0.0077893,0.0077893,0.0000000,0.0000000,0.0020621,0.0000000,0.0000000,0.0000000,0.0077893,0.0000000,0.0000000,0.0020621,0.0000000,0.0000000,0.0000000,0.0077893,0.0000000,0.0000000,0.0020621
25.3133090,1.0000000,,-0.9596183,-0.2812972,0.0002303,0.0021362,0.0021470,-0.0018928,-0.0013818,,,,2.1432741,-6.9281516,-21.3700905,0.0000000,0.0000000,0.0000000,0.0200000,0.0597942,0.0000000,0.0000000,0.0078306,0.0000000,0.0000000,0.0000000,0.0597942,0.0000000,0.0000000,0.0078306,0.0000000,0.0000000,0.0000000,0.0597942,0.0000000,0.0000000,0.0078306,0.0078306,0.0000000,0.0000000,0.0020675,0.0000000,0.0000000,0.0000000,0.0078306,0.0000000,0.0000000,0.0020675,0.0000000,0.0000000,0.0000000,0.0078306,0.0000000,0.0000000,0.0020675
25.3288400,,1.0000100,-0.9596183,-0.2812972,0.0002303,0.0021433,,,,0.0000000,0.0000000,0.0000000,2.1432741,-6.9281516,-21.3700905,0.0000000,0.0000000,0.0000000,0.1000010,0.0581828,0.0000000,0.0000000,0.0076196,0.0000000,0.0000000,0.0000000,0.0581828,0.0000000,0.0000000,0.0076196,0.0000000,0.0000000,0.0000000,0.0581828,0.0000000,0.0000000,0.0076196,0.0076196,0.0000000,0.0000000,0.0020399,0.0000000,0.0000000,0.0000000,0.0076196,0.0000000,0.0000000,0.0020399,0.0000000,0.0000000,0.0000000,0.0076196,0.0000000,0.0000000,0.0020399
25.3422670,1.0004500,,-0.9596183,-0.2812972,0.0002036,0.0021433,0.0011269,0.0026318,0.0022388,,,,2.1432741,-6.9281516,-21.3700905,0.0000000,0.0000000,0.0000000,0.0200090,0.0584877,0.0000000,0.0000000,0.0076605,0.0000000,0.0000000,0.0000000,0.0584877,0.0000000,0.0000000,0.0076605,0.0000000,0.0000000,0.0000000,0.0584877,0.0000000,0.0000000,0.0076605,0.0076605,0.0000000,0.0000000,0.0020454,0.0000000,0.0000000,0.0000000,0.0076605,0.0000000,0.0000000,0.0020454,0.0000000,0.0000000,0.0000000,0.0076605,0.0000000,0.0000000,0.0020454
25.3558880,1.1995500,,-0.9596183,-0.2812972,0.0002274,0.0021455,-0.0027248,-0.0028955,-0.0032751,,,,2.1432741,-6.9281516,-21.3700905,0.0000000,0.0000000,0.0000000,0.0239910,0.0588553,0.0000000,0.0000000,0.0077096,0.0000000,0.0000000,0.0000000,0.0588553,0.0000000,0.0000000,0.0077096,0.0000000,0.0000000,0.0000000,0.0588553,0.0000000,0.0000000,0.0077096,0.0077096,0.0000000,0.0000000,0.0020520,0.0000000,0.0000000,0.0000000,0.0077096,0.0000000,0.0000000,0.0020520,0.0000000,0.0000000,0.0000000,0.0077096,0.0000000,0.0000000,0.0020520
25.3781770,1.0501001,,-0.9596183,-0.2812971,0.0002440,0.0021702,-0.0027052,-0.0078107,-0.0057880,,,,2.1432741,-6.9281516,-21.3700905,0.0000000,0.0000000,0.0000000,0.0210020,0.0591791,0.0000000,0.0000000,0.0077527,0.0000000,0.0000000,0.0000000,0.0591791,0.0000000,0.0000000,0.0077527,0.0000000,0.0000000,0.0000000,0.0591791,0.0000000,0.0000000,0.0077527,0.0077527,0.0000000,0.0000000,0.0020577,0.0000000,0.0000000,0.0000000,0.0077527,0.0000000,0.0000000,0.0020577,0.0000000,0.0000000,0.0000000,0.0077527,0.0000000,0.0000000,0.0020577
25.3970640,1.0002501,,-0.9596182,-0.2812971,0.0002471,0.0022133,-0.0049155,-0.0063010,-0.0036264,,,,2.1432741,-6.9281516,-21.3700905,0.0000000,0.0000000,0.0000000,0.0200050,0.0594893,0.0000000,0.0000000,0.0077940,0.0000000,0.0000000,0.0000000,0.0594893,0.0000000,0.0000000,0.0077940,0.0000000,0.0000000,0.0000000,0.0594893,0.0000000,0.0000000,0.0077940,0.0077940,0.0000000,0.0000000,0.0020632,0.0000000,0.0000000,0.0000000,0.0077940,0.0000000,0.0000000,0.0020632,0.0000000,0.0000000,0.0000000,0.0077940,0.0000000,0.0000000,0.0020632
25.4179120,1.0497501,,-0.9596181,-0.2812971,0.0002695,0.0022423,-0.0020839,0.0003361,-0.0027898,,,,2.1432741,-6.9281516,-21.3700905,0.0000000,0.0000000,0.0000000,0.0209950,0.0598166,0.0000000,0.0000000,0.0078373,0.0000000,0.0000000,0.0000000,0.0598166,0.0000000,0.0000000,0.0078373,0.0000000,0.0000000,0.0000000,0.0598166,0.0000000,0.0000000,0.0078373,0.0078373,0.0000000,0.0000000,0.0020690,0.0000000,0.0000000,0.0000000,0.0078373,0.0000000,0.0000000,0.0020690,0.0000000,0.0000000,0.0000000,0.0078373,0.0000000,0.0000000,0.0020690
25.4353410,,1.0000000,-0.9596181,-0.2812971,0.0002695,0.0022423,,,,0.0000000,0.0000000,0.0000000,2.1432741,-6.9281516,-21.3700905,0.0000000,0.0000000,0.0000000,0.1000000,0.0582040,0.0000000,0.0000000,0.0076261,0.0000000,0.0000000,0.0000000,0.0582040,0.0000000,0.0000000,0.0076261,0.0000000,0.0000000,0.0000000,0.0582040,0.0000000,0.0000000,0.0076261,0.0076261,0.0000000,0.0000000,0.0020413,0.0000000,0.0000000,0.0000000,0.0076261,0.0000000,0.0000000,0.0020413,0.0000000,0.0000000,0.0000000,0.0076261,0.0000000,0.0000000,0.0020413
25.4486870,1.1001000,,-0.9596181,-0.2812970,0.0002905,0.0022342,-0.0038038,0.0041048,-0.0031039,,,,2.1432741,-6.9281516,-21.3700905,0.0000000,0.0000000,0.0000000,0.0220020,0.0585395,0.0000000,0.0000000,0.0076710,0.0000000,0.0000000,0.0000000,0.0585395,0.0000000,0.0000000,0.0076710,0.0000000,0.0000000,0.0000000,0.0585395,0.0000000,0.0000000,0.0076710,0.0076710,0.0000000,0.0000000,0.0020473,0.0000000,0.0000000,0.0000000,0.0076710,0.0000000,0.0000000,0.0020473,0.0000000,0.0000000,0.0000000,0.0076710,0.0000000,0.0000000,0.0020473
25.4619140,1.0998001,,-0.9596181,-0.2812970,0.0003082,0.0022396,0.0041330,0.0043031,0.0008895,,,,2.1432741,-6.9281516,-21.3700905,0.0000000,0.0000000,0.0000000,0.0219960,0.0588770,0.0000000,0.0000000,0.0077161,0.0000000,0.0000000,0.0000000,0.0588770,0.0000000,0.0000000,0.0077161,0.0000000,0.0000000,0.0000000,0.0588770,0.0000000,0.0000000,0.0077161,0.0077161,0.0000000,0.0000000,0.0020533,0.0000000,0.0000000,0.0000000,0.0077161,0.0000000,0.0000000,0.0020533,0.0000000,0.0000000,0.0000000,0.0077161,0.0000000,0.0000000,0.0020533
25.4832800,1.0001000,,-0.9596181,-0.2812969,0.0003310,0.0022345,-0.0040752,-0.0041503,0.0043510,,,,2.1432741,-6.9281516,-21.3700905,0.0000000,0.0000000,0.0000000,0.0200020,0.0591857,0.0000000,0.0000000,0.0077572,0.0000000,0.0000000,0.0000000,0.0591857,0.0000000,0.0000000,0.0077572,0.0000000,0.0000000,0.0000000,0.0591857,0.0000000,0.0000000,0.0077572,0.0077572,0.0000000,0.0000000,0.0020588,0.0000000,0.0000000,0.0000000,0.0077572,0.0000000,0.0000000,0.0020588,0.0000000,0.0000000,0.0000000,0.0077572,0.0000000,0.0000000,0.0020588
25.5019140,1.0002999,,-0.9596181,-0.2812969,0.0003517,0.0022323,0.0033106,-0.0020218,0.0046169,,,,2.1432741,-6.9281516,-21.3700905,0.0000000,0.0000000,0.0000000,0.0200060,0.0594961,0.0000000,0.0000000,0.0077985,0.0000000,0.0000000,0.0000000,0.0594961,0.0000000,0.0000000,0.0077985,0.0000000,0.0000000,0.0000000,0.0594961,0.0000000,0.0000000,0.0077985,0.0077985,0.0000000,0.0000000,0.0020643,0.0000000,0.0000000,0.0000000,0.0077985,0.0000000,0.0000000,0.0020643,0.0000000,0.0000000,0.0000000,0.0077985,0.0000000,0.0000000,0.0020643
25.5248750,,1.0099900,-0.9596181,-0.2812969,0.0003550,0.0022431,,,,0.0000000,0.0000000,0.0000000,2.1432741,-6.9281516,-21.3700905,0.0000000,0.0000000,0.0000000,0.1009990,0.0579005,0.0000000,0.0000000,0.0075893,0.0000000,0.0000000,0.0000000,0.0579005,0.0000000,0.0000000,0.0075893,0.0000000,0.0000000,0.0000000,0.0579005,0.0000000,0.0000000,0.0075893,0.0075893,0.0000000,0.0000000,0.0020369,0.0000000,0.0000000,0.0000000,0.0075893,0.0000000,0.0000000,0.0020369,0.0000000,0.0000000,0.0000000,0.0075893,0.0000000,0.0000000,0.0020369
25.5387780,1.0997500,,-0.9596181,-0.2812969,0.0003550,0.0022431,0.0018537,-0.0053367,-0.0035509,,,,2.1432741,-6.9281516,-21.3700905,0.0000000,0.0000000,0.0000000,0.0219950,0.0582343,0.0000000,0.0000000,0.0076342,0.0000000,0.0000000,0.0000000,0.0582343,0.0000000,0.0000000,0.0076342,0.0000000,0.0000000,0.0000000,0.0582343,0.0000000,0.0000000,0.0076342,0.0076342,0.0000000,0.0000000,0.0020429,0.0000000,0.0000000,0.0000000,0.0076342,0.0000000,0.0000000,0.0020429,0.0000000,0.0000000,0.0000000,0.0076342,0.0000000,0.0000000,0.0020429
25.5514480,1.3998500,,-0.9596181,-0.2812969,0.0003386,0.0022460,-0.0047647,-0.0031032,-0.0029962,,,,2.1432741,-6.9281516,-21.3700905,0.0000000,0.0000000,0.0000000,0.0279970,0.0586618,0.0000000,0.0000000,0.0076915,0.0000000,0.0000000,0.0000000,0.0586618,0.0000000,0.0000000,0.0076915,0.0000000,0.0000000,0.0000000,0.0586618,0.0000000,0.0000000,0.0076915,0.0076915,0.0000000,0.0000000,0.0020506,0.0000000,0.0000000,0.0000000,0.0076915,0.0000000,0.0000000,0.0020506,0.0000000,0.0000000,0.0000000,0.0076915,0.0000000,0.0000000,0.0020506
25.5729030,1.0502001,,-0.9596181,-0.2812970,0.0003088,0.0022531,-0.0015279,0.0050936,-0.0051602,,,,2.1432741,-6.9281516,-21.3700905,0.0000000,0.0000000,0.0000000,0.0210040,0.0589849,0.0000000,0.0000000,0.0077346,0.0000000,0.0000000,0.0000000,0.0589849,0.0000000,0.0000000,0.0077346,0.0000000,0.0000000,0.0000000,0.0589849,0.0000000,0.0000000,0.0077346,0.0077346,0.0000000,0.0000000,0.0020564,0.0000000,0.0000000,0.0000000,0.0077346,0.0000000,0.0000000,0.0020564,0.0000000,0.0000000,0.0000000,0.0077346,0.0000000,0.0000000,0.0020564
25.5941910,0.9998500,,-0.9596181,-0.2812970,0.0002863,0.0022605,0.0044698,0.0035768,0.0023027,,,,2.1432741,-6.9281516,-21.3700905,0.0000000,0.0000000,0.0000000,0.0199970,0.0592942,0.0000000,0.0000000,0.0077758,0.0000000,0.0000000,0.0000000,0.0592942,0.0000000,0.0000000,0.0077758,0.0000000,0.0000000,0.0000000,0.0592942,0.0000000,0.0000000,0.0077758,0.0077758,0.0000000,0.0000000,0.0020619,0.0000000,0.0000000,0.0000000,0.0077758,0.0000000,0.0000000,0.0020619,0.0000000,0.0000000,0.0000000,0.0077758,0.0000000,0.0000000,0.0020619
25.6130560,0.9999500,,-0.9596181,-0.2812971,0.0002608,0.0022636,-0.0013433,0.0020783,0.0028603,,,,2.1432741,-6.9281516,-21.3700905,0.0000000,0.0000000,0.0000000,0.0199990,0.0596052,0.0000000,0.0000000,0.0078171,0.0000000,0.0000000,0.0000000,0.0596052,0.0000000,0.0000000,0.0078171,0.0000000,0.0000000,0.0000000,0.0596052,0.0000000,0.0000000,0.0078171,0.0078171,0.0000000,0.0000000,0.0020673,0.0000000,0.0000000,0.0000000,0.0078171,0.0000000,0.0000000,0.0020673,0.0000000,0.0000000,0.0000000,0.0078171,0.0000000,0.0000000,0.0020673
25.6298090,,1.0000100,-0.9596181,-0.2812971,0.0002608,0.0022650,,,,0.0000000,0.0000000,0.0000000,2.1432741,-6.9281516,-21.3700905,0.0000000,0.0000000,0.0000000,0.1000010,0.0580039,0.0000000,0.0000000,0.0076071,0.0000000,0.0000000,0.0000000,0.0580039,0.0000000,0.0000000,0.0076071,0.0000000,0.0000000,0.0000000,0.0580039,0.0000000,0.0000000,0.0076071,0.0076071,0.0000000,0.0000000,0.0020398,0.0000000,0.0000000,0.0000000,0.0076071,0.0000000,0.0000000,0.0020398,0.0000000,0.0000000,0.0000000,0.0076071,0.0000000,0.0000000,0.0020398
25.6436840,1.0002501,,-0.9596181,-0.2812971,0.0002685,0.0022650,-0.0027468,0.0013443,-0.0007671,,,,2.1432741,-6.9281516,-21.3700905,0.0000000,0.0000000,0.0000000,0.0200050,0.0583082,0.0000000,0.0000000,0.0076479,0.0000000,0.0000000,0.0000000,0.0583082,0.0000000,0.0000000,0.0076479,0.0000000,0.0000000,0.0000000,0.0583082,0.0000000,0.0000000,0.0076479,0.0076479,0.0000000,0.0000000,0.0020453,0.0000000,0.0000000,0.0000000,0.0076479,0.0000000,0.0000000,0.0020453,0.0000000,0.0000000,0.0000000,0.0076479,0.0000000,0.0000000,0.0020453
25.6564520,1.1997501,,-0.9596180,-0.2812971,0.0002551,0.0022765,-0.0017778,0.0017174,-0.0023367,,,,2.1432741,-6.9281516,-21.3700905,0.0000000,0.0000000,0.0000000,0.0239950,0.0586752,0.0000000,0.0000000,0.0076971,0.0000000,0.0000000,0.0000000,0.0586752,0.0000000,0.0000000,0.0076971,0.0000000,0.0000000,0.0000000,0.0586752,0.0000000,0.0000000,0.0076971,0.0076971,0.0000000,0.0000000,0.0020519,0.0000000,0.0000000,0.0000000,0.0076971,0.0000000,0.0000000,0.0020519,0.0000000,0.0000000,0.0000000,0.0076971,0.0000000,0.0000000,0.0020519
25.6779830,1.0501500,,-0.9596180,-0.2812971,0.0002371,0.0022964,0.0020942,-0.0017353,-0.0080043,,,,2.1432741,-6.9281516,-21.3700905,0.0000000,0.0000000,0.0000000,0.0210030,0.0589986,0.0000000,0.0000000,0.0077402,0.0000000,0.0000000,0.0000000,0.0589986,0.0000000,0.0000000,0.0077402,0.0000000,0.0000000,0.0000000,0.0589986,0.0000000,0.0000000,0.0077402,0.0077402,0.0000000,0.0000000,0.0020576,0.0000000,0.0000000,0.0000000,0.0077402,0.0000000,0.0000000,0.0020576,0.0000000,0.0000000,0.0000000,0.0077402,0.0000000,0.0000000,0.0020576
25.6991810,0.9999000,,-0.9596179,-0.2812971,0.0002291,0.0023189,0.0018253,-0.0085657,-0.0010724,,,,2.1432741,-6.9281516,-21.3700905,0.0000000,0.0000000,0.0000000,0.0199980,0.0593081,0.0000000,0.0000000,0.0077814,0.0000000,0.0000000,0.0000000,0.0593081,0.0000000,0.0000000,0.0077814,0.0000000,0.0000000,0.0000000,0.0593081,0.0000000,0.0000000,0.0077814,0.0077814,0.0000000,0.0000000,0.0020631,0.0000000,0.0000000,0.0000000,0.0077814,0.0000000,0.0000000,0.0020631,0.0000000,0.0000000,0.0000000,0.0077814,0.0000000,0.0000000,0.0020631
25.7179080,0.9999500,,-0.9596179,-0.2812971,0.0002228,0.0023450,0.0063143,-0.0090207,0.0041024,,,,2.1432741,-6.9281516,-21.3700905,0.0000000,0.0000000,0.0000000,0.0199990,0.0596194,0.0000000,0.0000000,0.0078227,0.0000000,0.0000000,0.0000000,0.0596194,0.0000000,0.0000000,0.0078227,0.0000000,0.0000000,0.0000000,0.0596194,0.0000000,0.0000000,0.0078227,0.0078227,0.0000000,0.0000000,0.0020686,0.0000000,0.0000000,0.0000000,0.0078227,0.0000000,0.0000000,0.0020686,0.0000000,0.0000000,0.0000000,0.0078227,0.0000000,0.0000000,0.0020686
25.7339110,,1.0200100,-0.9596179,-0.2812971,0.0002228,0.0023450,,,,0.0000000,0.0000000,0.0000000,2.1432741,-6.9281516,-21.3700905,0.0000000,0.0000000,0.0000000,0.1020010,0.0580172,0.0000000,0.0000000,0.0076125,0.0000000,0.0000000,0.0000000,0.0580172,0.0000000,0.0000000,0.0076125,0.0000000,0.0000000,0.0000000,0.0580172,0.0000000,0.0000000,0.0076125,0.0076125,0.0000000,0.0000000,0.0020410,0.0000000,0.0000000,0.0000000,0.0076125,0.0000000,0.0000000,0.0020410,0.0000000,0.0000000,0.0000000,0.0076125,0.0000000,0.0000000,0.0020410
25.7476060,1.0000000,,-0.9596179,-0.2812971,0.0002383,0.0023523,0.0017610,-0.0041213,0.0020512,,,,2.1432741,-6.9281516,-21.3700905,0.0000000,0.0000000,0.0000000,0.0200000,0.0583217,0.0000000,0.0000000,0.0076534,0.0000000,0.0000000,0.0000000,0.0583217,0.0000000,0.0000000,0.0076534,0.0000000,0.0000000,0.0000000,0.0583217,0.0000000,0.0000000,0.0076534,0.0076534,0.0000000,0.0000000,0.0020465,0.0000000,0.0000000,0.0000000,0.0076534,0.0000000,0.0000000,0.0020465,0.0000000,0.0000000,0.0000000,0.0076534,0.0000000,0.0000000,0.0020465
25.7608260,1.1500500,,-0.9596179,-0.2812971,0.0002581,0.0023514,0.0026886,-0.0024116,0.0017580,,,,2.1432741,-6.9281516,-21.3700905,0.0000000,0.0000000,0.0000000,0.0230010,0.0586738,0.0000000,0.0000000,0.0077005,0.0000000,0.0000000,0.0000000,0.0586738,0.0000000,0.0000000,0.0077005,0.0000000,0.0000000,0.0000000,0.0586738,0.0000000,0.0000000,0.0077005,0.0077005,0.0000000,0.0000000,0.0020528,0.0000000,0.0000000,0.0000000,0.0077005,0.0000000,0.0000000,0.0020528,0.0000000,0.0000000,0.0000000,0.0077005,0.0000000,0.0000000,0.0020528
25.7810210,1.0001501,,-0.9596179,-0.2812971,0.0002764,0.0023288,-0.0046295,-0.0001300,-0.0030272,,,,2.1432741,-6.9281516,-21.3700905,0.0000000,0.0000000,0.0000000,0.0200030,0.0589819,0.0000000,0.0000000,0.0077416,0.0000000,0.0000000,0.0000000,0.0589819,0.0000000,0.0000000,0.0077416,0.0000000,0.0000000,0.0000000,0.0589819,0.0000000,0.0000000,0.0077416,0.0077416,0.0000000,0.0000000,0.0020583,0.0000000,0.0000000,0.0000000,0.0077416,0.0000000,0.0000000,0.0020583,0.0000000,0.0000000,0.0000000,0.0077416,0.0000000,0.0000000,0.0020583
25.8007540,1.0006001,,-0.9596179,-0.2812970,0.0002957,0.0023170,-0.0026581,0.0010184,-0.0044433,,,,2.1432741,-6.9281516,-21.3700905,0.0000000,0.0000000,0.0000000,0.0200120,0.0592917,0.0000000,0.0000000,0.0077829,0.0000000,0.0000000,0.0000000,0.0592917,0.0000000,0.0000000,0.0077829,0.0000000,0.0000000,0.0000000,0.0592917,0.0000000,0.0000000,0.0077829,0.0077829,0.0000000,0.0000000,0.0020638,0.0000000,0.0000000,0.0000000,0.0077829,0.0000000,0.0000000,0.0020638,0.0000000,0.0000000,0.0000000,0.0077829,0.0000000,0.0000000,0.0020638
25.8216950,1.0494001,,-0.9596180,-0.2812970,0.0003009,0.0023074,0.0049118,-0.0028096,-0.0053955,,,,2.1432741,-6.9281516,-21.3700905,0.0000000,0.0000000,0.0000000,0.0209880,0.0596184,0.0000000,0.0000000,0.0078263,0.0000000,0.0000000,0.0000000,0.0596184,0.0000000,0.0000000,0.0078263,0.0000000,0.0000000,0.0000000,0.0596184,0.0000000,0.0000000,0.0078263,0.0078262,0.0000000,0.0000000,0.0020695,0.0000000,0.0000000,0.0000000,0.0078262,0.0000000,0.0000000,0.0020695,0.0000000,0.0000000,0.0000000,0.0078262,0.0000000,0.0000000,0.0020695
25.8377900,,1.0001400,-0.9596180,-0.2812970,0.0003009,0.0023074,,,,0.0000000,0.0000000,0.0000000,2.1432741,-6.9281516,-21.3700905,0.0000000,0.0000000,0.0000000,0.1000140,0.0580163,0.0000000,0.0000000,0.0076159,0.0000000,0.0000000,0.0000000,0.0580163,0.0000000,0.0000000,0.0076159,0.0000000,0.0000000,0.0000000,0.0580163,0.0000000,0.0000000,0.0076159,0.0076159,0.0000000,0.0000000,0.0020419,0.0000000,0.0000000,0.0000000,0.0076159,0.0000000,0.0000000,0.0020419,0.0000000,0.0000000,0.0000000,0.0076159,0.0000000,0.0000000,0.0020419
25.8514100,1.0999000,,-0.9596180,-0.2812970,0.0003025,0.0023020,-0.0022896,-0.0027705,-0.0002563,,,,2.1432741,-6.9281516,-21.3700905,0.0000000,0.0000000,0.0000000,0.0219980,0.0583514,0.0000000,0.0000000,0.0076609,0.0000000,0.0000000,0.0000000,0.0583514,0.0000000,0.0000000,0.0076609,0.0000000,0.0000000,0.0000000,0.0583514,0.0000000,0.0000000,0.0076609,0.0076609,0.0000000,0.0000000,0.0020479,0.0000000,0.0000000,0.0000000,0.0076609,0.0000000,0.0000000,0.0020479,0.0000000,0.0000000,0.0000000,0.0076609,0.0000000,0.0000000,0.0020479
25.8651190,1.0503000,,-0.9596180,-0.2812970,0.0002963,0.0022815,-0.0032047,-0.0049863,0.0015808,,,,2.1432741,-6.9281516,-21.3700905,0.0000000,0.0000000,0.0000000,0.0210060,0.0586733,0.0000000,0.0000000,0.0077040,0.0000000,0.0000000,0.0000000,0.0586733,0.0000000,0.0000000,0.0077040,0.0000000,0.0000000,0.0000000,0.0586733,0.0000000,0.0000000,0.0077040,0.0077040,0.0000000,0.0000000,0.0020537,0.0000000,0.0000000,0.0000000,0.0077040,0.0000000,0.0000000,0.0020537,0.0000000,0.0000000,0.0000000,0.0077040,0.0000000,0.0000000,0.0020537
25.8850050,1.0001501,,-0.9596180,-0.2812970,0.0003240,0.0022832,-0.0021517,-0.0026381,-0.0018951,,,,2.1432741,-6.9281516,-21.3700905,0.0000000,0.0000000,0.0000000,0.0200030,0.0589815,0.0000000,0.0000000,0.0077451,0.0000000,0.0000000,0.0000000,0.0589815,0.0000000,0.0000000,0.0077451,0.0000000,0.0000000,0.0000000,0.0589815,0.0000000,0.0000000,0.0077451,0.0077451,0.0000000,0.0000000,0.0020592,0.0000000,0.0000000,0.0000000,0.0077451,0.0000000,0.0000000,0.0020592,0.0000000,0.0000000,0.0000000,0.0077451,0.0000000,0.0000000,0.0020592
25.9048270,0.9996500,,-0.9596180,-0.2812969,0.0003432,0.0022806,-0.0082017,-0.0004951,-0.0009476,,,,2.1432741,-6.9281516,-21.3700905,0.0000000,0.0000000,0.0000000,0.0199930,0.0592912,0.0000000,0.0000000,0.0077864,0.0000000,0.0000000,0.0000000,0.0592912,0.0000000,0.0000000,0.0077864,0.0000000,0.0000000,0.0000000,0.0592912,0.0000000,0.0000000,0.0077864,0.0077864,0.0000000,0.0000000,0.0020647,0.0000000,0.0000000,0.0000000,0.0077864,0.0000000,0.0000000,0.0020647,0.0000000,0.0000000,0.0000000,0.0077864,0.0000000,0.0000000,0.0020647
25.9269540,,0.9998500,-0.9596180,-0.2812969,0.0003544,0.0023076,,,,0.0000000,0.0000000,0.0000000,2.1432741,-6.9281516,-21.3700905,0.0000000,0.0000000,0.0000000,0.0999850,0.0577064,0.0000000,0.0000000,0.0075782,0.0000000,0.0000000,0.0000000,0.0577064,0.0000000,0.0000000,0.0075782,0.0000000,0.0000000,0.0000000,0.0577064,0.0000000,0.0000000,0.0075782,0.0075782,0.0000000,0.0000000,0.0020373,0.0000000,0.0000000,0.0000000,0.0075782,0.0000000,0.0000000,0.0020373,0.0000000,0.0000000,0.0000000,0.0075782,0.0000000,0.0000000,0.0020373
25.9408140,1.0498501,,-0.9596180,-0.2812969,0.0003544,0.0023076,-0.0009881,-0.0113254,-0.0021828,,,,2.1432741,-6.9281516,-21.3700905,0.0000000,0.0000000,0.0000000,0.0209970,0.0580246,0.0000000,0.0000000,0.0076211,0.0000000,0.0000000,0.0000000,0.0580246,0.0000000,0.0000000,0.0076211,0.0000000,0.0000000,0.0000000,0.0580246,0.0000000,0.0000000,0.0076211,0.0076211,0.0000000,0.0000000,0.0020431,0.0000000,0.0000000,0.0000000,0.0076211,0.0000000,0.0000000,0.0020431,0.0000000,0.0000000,0.0000000,0.0076211,0.0000000,0.0000000,0.0020431
25.9538730,1.3999500,,-0.9596179,-0.2812969,0.0003593,0.0023375,-0.0005627,-0.0032823,-0.0010914,,,,2.1432741,-6.9281516,-21.3700905,0.0000000,0.0000000,0.0000000,0.0279990,0.0584514,0.0000000,0.0000000,0.0076784,0.0000000,0.0000000,0.0000000,0.0584514,0.0000000,0.0000000,0.0076784,0.0000000,0.0000000,0.0000000,0.0584514,0.0000000,0.0000000,0.0076784,0.0076783,0.0000000,0.0000000,0.0020508,0.0000000,0.0000000,0.0000000,0.0076783,0.0000000,0.0000000,0.0020508,0.0000000,0.0000000,0.0000000,0.0076783,0.0000000,0.0000000,0.0020508
25.9746790,1.0501500,,-0.9596179,-0.2812969,0.0003403,0.0023484,0.0035181,0.0024253,0.0014074,,,,2.1432741,-6.9281516,-21.3700905,0.0000000,0.0000000,0.0000000,0.0210030,0.0587739,0.0000000,0.0000000,0.0077215,0.0000000,0.0000000,0.0000000,0.0587739,0.0000000,0.0000000,0.0077215,0.0000000,0.0000000,0.0000000,0.0587739,0.0000000,0.0000000,0.0077215,0.0077215,0.0000000,0.0000000,0.0020565,0.0000000,0.0000000,0.0000000,0.0077215,0.0000000,0.0000000,0.0020565,0.0000000,0.0000000,0.0000000,0.0077215,0.0000000,0.0000000,0.0020565
25.9958980,1.0505000,,-0.9596179,-0.2812970,0.0003046,0.0023551,0.0064816,-0.0018162,0.0014361,,,,2.1432741,-6.9281516,-21.3700905,0.0000000,0.0000000,0.0000000,0.0210100,0.0590984,0.0000000,0.0000000,0.0077647,0.0000000,0.0000000,0.0000000,0.0590984,0.0000000,0.0000000,0.0077647,0.0000000,0.0000000,0.0000000,0.0590984,0.0000000,0.0000000,0.0077647,0.0077647,0.0000000,0.0000000,0.0020623,0.0000000,0.0000000,0.0000000,0.0077647,0.0000000,0.0000000,0.0020623,0.0000000,0.0000000,0.0000000,0.0077647,0.0000000,0.0000000,0.0020623
26.0170880,1.0494500,,-0.9596179,-0.2812971,0.0002849,0.0023368,0.0052855,0.0031050,0.0014505,,,,2.1432741,-6.9281516,-21.3700905,0.0000000,0.0000000,0.0000000,0.0209890,0.0594243,0.0000000,0.0000000,0.0078081,0.0000000,0.0000000,0.0000000,0.0594243,0.0000000,0.0000000,0.0078081,0.0000000,0.0000000,0.0000000,0.0594243,0.0000000,0.0000000,0.0078081,0.0078081,0.0000000,0.0000000,0.0020681,0.0000000,0.0000000,0.0000000,0.0078081,0.0000000,0.0000000,0.0020681,0.0000000,0.0000000,0.0000000,0.0078081,0.0000000,0.0000000,0.0020681
26.0351790,,0.9999900,-0.9596179,-0.2812971,0.0002849,0.0023152,,,,0.0000000,0.0000000,0.0000000,2.1432741,-6.9281516,-21.3700905,0.0000000,0.0000000,0.0000000,0.0999990,0.0578325,0.0000000,0.0000000,0.0075989,0.0000000,0.0000000,0.0000000,0.0578325,0.0000000,0.0000000,0.0075989,0.0000000,0.0000000,0.0000000,0.0578325,0.0000000,0.0000000,0.0075989,0.0075989,0.0000000,0.0000000,0.0020406,0.0000000,0.0000000,0.0000000,0.0075989,0.0000000,0.0000000,0.0020406,0.0000000,0.0000000,0.0000000,0.0075989,0.0000000,0.0000000,0.0020406
26.0487160,1.0006001,,-0.9596179,-0.2812971,0.0002792,0.0023152,0.0029937,0.0060309,-0.0014720,,,,2.1432741,-6.9281516,-21.3700905,0.0000000,0.0000000,0.0000000,0.0200120,0.0581366,0.0000000,0.0000000,0.0076398,0.0000000,0.0000000,0.0000000,0.0581366,0.0000000,0.0000000,0.0076398,0.0000000,0.0000000,0.0000000,0.0581366,0.0000000,0.0000000,0.0076398,0.0076398,0.0000000,0.0000000,0.0020461,0.0000000,0.0000000,0.0000000,0.0076398,0.0000000,0.0000000,0.0020461,0.0000000,0.0000000,0.0000000,0.0076398,0.0000000,0.0000000,0.0020461
26.0618470,1.2493001,,-0.9596180,-0.2812971,0.0002615,0.0022955,0.0006042,0.0042972,-0.0024450,,,,2.1432741,-6.9281516,-21.3700905,0.0000000,0.0000000,0.0000000,0.0249860,0.0585184,0.0000000,0.0000000,0.0076910,0.0000000,0.0000000,0.0000000,0.0585184,0.0000000,0.0000000,0.0076910,0.0000000,0.0000000,0.0000000,0.0585184,0.0000000,0.0000000,0.0076910,0.0076910,0.0000000,0.0000000,0.0020529,0.0000000,0.0000000,0.0000000,0.0076910,0.0000000,0.0000000,0.0020529,0.0000000,0.0000000,0.0000000,0.0076910,0.0000000,0.0000000,0.0020529
26.0821590,1.0001000,,-0.9596179,-0.2812971,0.0002532,0.0023185,0.0067184,-0.0052977,-0.0043963,,,,2.1432741,-6.9281516,-21.3700905,0.0000000,0.0000000,0.0000000,0.0200020,0.0588261,0.0000000,0.0000000,0.0077321,0.0000000,0.0000000,0.0000000,0.0588261,0.0000000,0.0000000,0.0077321,0.0000000,0.0000000,0.0000000,0.0588261,0.0000000,0.0000000,0.0077321,0.0077321,0.0000000,0.0000000,0.0020584,0.0000000,0.0000000,0.0000000,0.0077321,0.0000000,0.0000000,0.0020584,0.0000000,0.0000000,0.0000000,0.0077321,0.0000000,0.0000000,0.0020584
26.1019260,1.0002999,,-0.9596178,-0.2812972,0.0002302,0.0023392,0.0026573,0.0001664,-0.0039071,,,,2.1432741,-6.9281516,-21.3700905,0.0000000,0.0000000,0.0000000,0.0200060,0.0591355,0.0000000,0.0000000,0.0077734,0.0000000,0.0000000,0.0000000,0.0591355,0.0000000,0.0000000,0.0077734,0.0000000,0.0000000,0.0000000,0.0591355,0.0000000,0.0000000,0.0077734,0.0077734,0.0000000,0.0000000,0.0020639,0.0000000,0.0000000,0.0000000,0.0077734,0.0000000,0.0000000,0.0020639,0.0000000,0.0000000,0.0000000,0.0077734,0.0000000,0.0000000,0.0020639
26.1219960,0.9996500,,-0.9596178,-0.2812973,0.0002070,0.0023447,0.0054867,0.0001976,-0.0078129,,,,2.1432741,-6.9281516,-21.3700905,0.0000000,0.0000000,0.0000000,0.0199930,0.0594463,0.0000000,0.0000000,0.0078147,0.0000000,0.0000000,0.0000000,0.0594463,0.0000000,0.0000000,0.0078147,0.0000000,0.0000000,0.0000000,0.0594463,0.0000000,0.0000000,0.0078147,0.0078147,0.0000000,0.0000000,0.0020694,0.0000000,0.0000000,0.0000000,0.0078147,0.0000000,0.0000000,0.0020694,0.0000000,0.0000000,0.0000000,0.0078147,0.0000000,0.0000000,0.0020694
26.1368150,,1.0000401,-0.9596178,-0.2812973,0.0002070,0.0023447,,,,0.0000000,0.0000000,0.0000000,2.1432741,-6.9281516,-21.3700905,0.0000000,0.0000000,0.0000000,0.1000040,0.0578533,0.0000000,0.0000000,0.0076053,0.0000000,0.0000000,0.0000000,0.0578533,0.0000000,0.0000000,0.0076053,0.0000000,0.0000000,0.0000000,0.0578533,0.0000000,0.0000000,0.0076053,0.0076053,0.0000000,0.0000000,0.0020418,0.0000000,0.0000000,0.0000000,0.0076053,0.0000000,0.0000000,0.0020418,0.0000000,0.0000000,0.0000000,0.0076053,0.0000000,0.0000000,0.0020418
26.1503780,1.0009501,,-0.9596178,-0.2812973,0.0001913,0.0023465,0.0042082,0.0065533,-0.0012209,,,,2.1432741,-6.9281516,-21.3700905,0.0000000,0.0000000,0.0000000,0.0200190,0.0581578,0.0000000,0.0000000,0.0076462,0.0000000,0.0000000,0.0000000,0.0581578,0.0000000,0.0000000,0.0076462,0.0000000,0.0000000,0.0000000,0.0581578,0.0000000,0.0000000,0.0076462,0.0076462,0.0000000,0.0000000,0.0020473,0.0000000,0.0000000,0.0000000,0.0076462,0.0000000,0.0000000,0.0020473,0.0000000,0.0000000,0.0000000,0.0076462,0.0000000,0.0000000,0.0020473
26.1637640,1.0990001,,-0.9596177,-0.2812973,0.0001693,0.0023676,0.0030425,0.0036581,0.0057372,,,,2.1432741,-6.9281516,-21.3700905,0.0000000,0.0000000,0.0000000,0.0219800,0.0584940,0.0000000,0.0000000,0.0076913,0.0000000,0.0000000,0.0000000,0.0584940,0.0000000,0.0000000,0.0076913,0.0000000,0.0000000,0.0000000,0.0584940,0.0000000,0.0000000,0.0076913,0.0076913,0.0000000,0.0000000,0.0020533,0.0000000,0.0000000,0.0000000,0.0076913,0.0000000,0.0000000,0.0020533,0.0000000,0.0000000,0.0000000,0.0076913,0.0000000,0.0000000,0.0020533
26.1852950,1.0000501,,-0.9596177,-0.2812974,0.0001543,0.0023927,0.0051300,-0.0067922,0.0036010,,,,2.1432741,-6.9281516,-21.3700905,0.0000000,0.0000000,0.0000000,0.0200010,0.0588016,0.0000000,0.0000000,0.0077324,0.0000000,0.0000000,0.0000000,0.0588016,0.0000000,0.0000000,0.0077324,0.0000000,0.0000000,0.0000000,0.0588016,0.0000000,0.0000000,0.0077324,0.0077324,0.0000000,0.0000000,0.0020588,0.0000000,0.0000000,0.0000000,0.0077324,0.0000000,0.0000000,0.0020588,0.0000000,0.0000000,0.0000000,0.0077324,0.0000000,0.0000000,0.0020588
26.2037670,0.9999500,,-0.9596176,-0.2812974,0.0001451,0.0024204,0.0007873,-0.0051585,0.0066833,,,,2.1432741,-6.9281516,-21.3700905,0.0000000,0.0000000,0.0000000,0.0199990,0.0591109,0.0000000,0.0000000,0.0077736,0.0000000,0.0000000,0.0000000,0.0591109,0.0000000,0.0000000,0.0077736,0.0000000,0.0000000,0.0000000,0.0591109,0.0000000,0.0000000,0.0077736,0.0077736,0.0000000,0.0000000,0.0020643,0.0000000,0.0000000,0.0000000,0.0077736,0.0000000,0.0000000,0.0020643,0.0000000,0.0000000,0.0000000,0.0077736,0.0000000,0.0000000,0.0020643
26.2238810,1.0000501,,-0.9596175,-0.2812974,0.0001054,0.0024460,0.0031860,-0.0036016,0.0143280,,,,2.1432741,-6.9281516,-21.3700905,0.0000000,0.0000000,0.0000000,0.0200010,0.0594219,0.0000000,0.0000000,0.0078150,0.0000000,0.0000000,0.0000000,0.0594219,0.0000000,0.0000000,0.0078150,0.0000000,0.0000000,0.0000000,0.0594219,0.0000000,0.0000000,0.0078150,0.0078150,0.0000000,0.0000000,0.0020698,0.0000000,0.0000000,0.0000000,0.0078150,0.0000000,0.0000000,0.0020698,0.0000000,0.0000000,0.0000000,0.0078150,0.0000000,0.0000000,0.0020698
26.2399090,,1.0000800,-0.9596175,-0.2812974,0.0001054,0.0024460,,,,0.0000000,0.0000000,0.0000000,2.1432741,-6.9281516,-21.3700905,0.0000000,0.0000000,0.0000000,0.1000080,0.0578302,0.0000000,0.0000000,0.0076056,0.0000000,0.0000000,0.0000000,0.0578302,0.0000000,0.0000000,0.0076056,0.0000000,0.0000000,0.0000000,0.0578302,0.0000000,0.0000000,0.0076056,0.0076056,0.0000000,0.0000000,0.0020423,0.0000000,0.0000000,0.0000000,0.0076056,0.0000000,0.0000000,0.0020423,0.0000000,0.0000000,0.0000000,0.0076056,0.0000000,0.0000000,0.0020423
26.2537360,0.9999500,,-0.9596175,-0.2812975,0.0000946,0.0024575,-0.0043884,-0.0047763,0.0142441,,,,2.1432741,-6.9281516,-21.3700905,0.0000000,0.0000000,0.0000000,0.0199990,0.0581344,0.0000000,0.0000000,0.0076465,0.0000000,0.0000000,0.0000000,0.0581344,0.0000000,0.0000000,0.0076465,0.0000000,0.0000000,0.0000000,0.0581344,0.0000000,0.0000000,0.0076465,0.0076465,0.0000000,0.0000000,0.0020478,0.0000000,0.0000000,0.0000000,0.0076465,0.0000000,0.0000000,0.0020478,0.0000000,0.0000000,0.0000000,0.0076465,0.0000000,0.0000000,0.0020478
26.2666770,1.1500000,,-0.9596174,-0.2812974,0.0001019,0.0024822,-0.0025452,-0.0016557,0.0105400,,,,2.1432741,-6.9281516,-21.3700905,0.0000000,0.0000000,0.0000000,0.0230000,0.0584861,0.0000000,0.0000000,0.0076937,0.0000000,0.0000000,0.0000000,0.0584861,0.0000000,0.0000000,0.0076937,0.0000000,0.0000000,0.0000000,0.0584861,0.0000000,0.0000000,0.0076937,0.0076937,0.0000000,0.0000000,0.0020541,0.0000000,0.0000000,0.0000000,0.0076937,0.0000000,0.0000000,0.0020541,0.0000000,0.0000000,0.0000000,0.0076937,0.0000000,0.0000000,0.0020541
26.2891870,1.0500500,,-0.9596174,-0.2812974,0.0000992,0.0025072,-0.0031113,-0.0010491,0.0038052,,,,2.1432741,-6.9281516,-21.3700905,0.0000000,0.0000000,0.0000000,0.0210010,0.0588093,0.0000000,0.0000000,0.0077369,0.0000000,0.0000000,0.0000000,0.0588093,0.0000000,0.0000000,0.0077369,0.0000000,0.0000000,0.0000000,0.0588093,0.0000000,0.0000000,0.0077369,0.0077369,0.0000000,0.0000000,0.0020598,0.0000000,0.0000000,0.0000000,0.0077369,0.0000000,0.0000000,0.0020598,0.0000000,0.0000000,0.0000000,0.0077369,0.0000000,0.0000000,0.0020598
26.3077440,1.0000000,,-0.9596174,-0.2812974,0.0001112,0.0025162,-0.0040962,-0.0014782,0.0021467,,,,2.1432741,-6.9281516,-21.3700905,0.0000000,0.0000000,0.0000000,0.0200000,0.0591188,0.0000000,0.0000000,0.0077781,0.0000000,0.0000000,0.0000000,0.0591188,0.0000000,0.0000000,0.0077781,0.0000000,0.0000000,0.0000000,0.0591188,0.0000000,0.0000000,0.0077781,0.0077781,0.0000000,0.0000000,0.0020653,0.0000000,0.0000000,0.0000000,0.0077781,0.0000000,0.0000000,0.0020653,0.0000000,0.0000000,0.0000000,0.0077781,0.0000000,0.0000000,0.0020653
26.3294820,,1.0099000,-0.9596173,-0.2812973,0.0001374,0.0025322,,,,0.0000000,0.0000000,0.0000000,2.1432741,-6.9281516,-21.3700905,0.0000000,0.0000000,0.0000000,0.1009900,0.0575431,0.0000000,0.0000000,0.0075708,0.0000000,0.0000000,0.0000000,0.0575431,0.0000000,0.0000000,0.0075708,0.0000000,0.0000000,0.0000000,0.0575431,0.0000000,0.0000000,0.0075708,0.0075708,0.0000000,0.0000000,0.0020380,0.0000000,0.0000000,0.0000000,0.0075708,0.0000000,0.0000000,0.0020380,0.0000000,0.0000000,0.0000000,0.0075708,0.0000000,0.0000000,0.0020380
26.3427610,1.0000000,,-0.9596173,-0.2812973,0.0001374,0.0025322,-0.0028492,-0.0036154,0.0020499,,,,2.1432741,-6.9281516,-21.3700905,0.0000000,0.0000000,0.0000000,0.0200000,0.0578459,0.0000000,0.0000000,0.0076116,0.0000000,0.0000000,0.0000000,0.0578459,0.0000000,0.0000000,0.0076116,0.0000000,0.0000000,0.0000000,0.0578459,0.0000000,0.0000000,0.0076116,0.0076116,0.0000000,0.0000000,0.0020435,0.0000000,0.0000000,0.0000000,0.0076116,0.0000000,0.0000000,0.0020435,0.0000000,0.0000000,0.0000000,0.0076116,0.0000000,0.0000000,0.0020435
26.3558730,1.3999500,,-0.9596173,-0.2812973,0.0001438,0.0025614,0.0014135,-0.0009837,0.0010250,,,,2.1432741,-6.9281516,-21.3700905,0.0000000,0.0000000,0.0000000,0.0279990,0.0582721,0.0000000,0.0000000,0.0076689,0.0000000,0.0000000,0.0000000,0.0582721,0.0000000,0.0000000,0.0076689,0.0000000,0.0000000,0.0000000,0.0582721,0.0000000,0.0000000,0.0076689,0.0076689,0.0000000,0.0000000,0.0020512,0.0000000,0.0000000,0.0000000,0.0076689,0.0000000,0.0000000,0.0020512,0.0000000,0.0000000,0.0000000,0.0076689,0.0000000,0.0000000,0.0020512
26.3760620,1.0008000,,-0.9596172,-0.2812973,0.0001579,0.0025795,-0.0005902,-0.0057561,0.0000242,,,,2.1432741,-6.9281516,-21.3700905,0.0000000,0.0000000,0.0000000,0.0200160,0.0585791,0.0000000,0.0000000,0.0077100,0.0000000,0.0000000,0.0000000,0.0585791,0.0000000,0.0000000,0.0077100,0.0000000,0.0000000,0.0000000,0.0585791,0.0000000,0.0000000,0.0077100,0.0077100,0.0000000,0.0000000,0.0020567,0.0000000,0.0000000,0.0000000,0.0077100,0.0000000,0.0000000,0.0020567,0.0000000,0.0000000,0.0000000,0.0077100,0.0000000,0.0000000,0.0020567
26.3960670,0.9992000,,-0.9596171,-0.2812972,0.0001821,0.0025991,-0.0037589,-0.0073870,0.0005004,,,,2.1432741,-6.9281516,-21.3700905,0.0000000,0.0000000,0.0000000,0.0199840,0.0588873,0.0000000,0.0000000,0.0077512,0.0000000,0.0000000,0.0000000,0.0588873,0.0000000,0.0000000,0.0077512,0.0000000,0.0000000,0.0000000,0.0588873,0.0000000,0.0000000,0.0077512,0.0077512,0.0000000,0.0000000,0.0020622,0.0000000,0.0000000,0.0000000,0.0077512,0.0000000,0.0000000,0.0020622,0.0000000,0.0000000,0.0000000,0.0077512,0.0000000,0.0000000,0.0020622
26.4160150,1.0004500,,-0.9596170,-0.2812971,0.0002080,0.0026419,-0.0021617,-0.0054407,0.0044006,,,,2.1432741,-6.9281516,-21.3700905,0.0000000,0.0000000,0.0000000,0.0200090,0.0591975,0.0000000,0.0000000,0.0077925,0.0000000,0.0000000,0.0000000,0.0591975,0.0000000,0.0000000,0.0077925,0.0000000,0.0000000,0.0000000,0.0591975,0.0000000,0.0000000,0.0077925,0.0077925,0.0000000,0.0000000,0.0020676,0.0000000,0.0000000,0.0000000,0.0077925,0.0000000,0.0000000,0.0020676,0.0000000,0.0000000,0.0000000,0.0077925,0.0000000,0.0000000,0.0020676
26.4320230,,1.0000000,-0.9596170,-0.2812971,0.0002080,0.0026658,,,,0.0000000,0.0000000,0.0000000,2.1432741,-6.9281516,-21.3700905,0.0000000,0.0000000,0.0000000,0.1000000,0.0576176,0.0000000,0.0000000,0.0075846,0.0000000,0.0000000,0.0000000,0.0576176,0.0000000,0.0000000,0.0075846,0.0000000,0.0000000,0.0000000,0.0576176,0.0000000,0.0000000,0.0075846,0.0075845,0.0000000,0.0000000,0.0020403,0.0000000,0.0000000,0.0000000,0.0075845,0.0000000,0.0000000,0.0020403,0.0000000,0.0000000,0.0000000,0.0075845,0.0000000,0.0000000,0.0020403
26.4459010,1.0000000,,-0.9596170,-0.2812971,0.0002068,0.0026658,0.0039774,-0.0013013,-0.0021942,,,,2.1432741,-6.9281516,-21.3700905,0.0000000,0.0000000,0.0000000,0.0200000,0.0579210,0.0000000,0.0000000,0.0076254,0.0000000,0.0000000,0.0000000,0.0579210,0.0000000,0.0000000,0.0076254,0.0000000,0.0000000,0.0000000,0.0579210,0.0000000,0.0000000,0.0076254,0.0076254,0.0000000,0.0000000,0.0020458,0.0000000,0.0000000,0.0000000,0.0076254,0.0000000,0.0000000,0.0020458,0.0000000,0.0000000,0.0000000,0.0076254,0.0000000,0.0000000,0.0020458
26.4587570,1.1495500,,-0.9596170,-0.2812970,0.0002210,0.0026859,-0.0019633,-0.0013983,-0.0025620,,,,2.1432741,-6.9281516,-21.3700905,0.0000000,0.0000000,0.0000000,0.0229910,0.0582716,0.0000000,0.0000000,0.0076725,0.0000000,0.0000000,0.0000000,0.0582716,0.0000000,0.0000000,0.0076725,0.0000000,0.0000000,0.0000000,0.0582716,0.0000000,0.0000000,0.0076725,0.0076725,0.0000000,0.0000000,0.0020521,0.0000000,0.0000000,0.0000000,0.0076725,0.0000000,0.0000000,0.0020521,0.0000000,0.0000000,0.0000000,0.0076725,0.0000000,0.0000000,0.0020521
26.4814350,1.0508000,,-0.9596169,-0.2812970,0.0002284,0.0027251,0.0040843,-0.0033466,-0.0037300,,,,2.1432741,-6.9281516,-21.3700905,0.0000000,0.0000000,0.0000000,0.0210160,0.0585941,0.0000000,0.0000000,0.0077157,0.0000000,0.0000000,0.0000000,0.0585941,0.0000000,0.0000000,0.0077157,0.0000000,0.0000000,0.0000000,0.0585941,0.0000000,0.0000000,0.0077157,0.0077157,0.0000000,0.0000000,0.0020578,0.0000000,0.0000000,0.0000000,0.0077157,0.0000000,0.0000000,0.0020578,0.0000000,0.0000000,0.0000000,0.0077157,0.0000000,0.0000000,0.0020578
26.5000390,0.9994500,,-0.9596168,-0.2812971,0.0002068,0.0027515,0.0033925,0.0030035,0.0052074,,,,2.1432741,-6.9281516,-21.3700905,0.0000000,0.0000000,0.0000000,0.0199890,0.0589026,0.0000000,0.0000000,0.0077569,0.0000000,0.0000000,0.0000000,0.0589026,0.0000000,0.0000000,0.0077569,0.0000000,0.0000000,0.0000000,0.0589026,0.0000000,0.0000000,0.0077569,0.0077569,0.0000000,0.0000000,0.0020633,0.0000000,0.0000000,0.0000000,0.0077569,0.0000000,0.0000000,0.0020633,0.0000000,0.0000000,0.0000000,0.0077569,0.0000000,0.0000000,0.0020633
26.5199020,1.0003999,,-0.9596168,-0.2812971,0.0002108,0.0027518,-0.0008214,-0.0014050,0.0043127,,,,2.1432741,-6.9281516,-21.3700905,0.0000000,0.0000000,0.0000000,0.0200080,0.0592130,0.0000000,0.0000000,0.0077982,0.0000000,0.0000000,0.0000000,0.0592130,0.0000000,0.0000000,0.0077982,0.0000000,0.0000000,0.0000000,0.0592130,0.0000000,0.0000000,0.0077982,0.0077982,0.0000000,0.0000000,0.0020688,0.0000000,0.0000000,0.0000000,0.0077982,0.0000000,0.0000000,0.0020688,0.0000000,0.0000000,0.0000000,0.0077982,0.0000000,0.0000000,0.0020688
26.5357590,,1.0000000,-0.9596168,-0.2812971,0.0002108,0.0027518,,,,0.0000000,0.0000000,0.0000000,2.1432741,-6.9281516,-21.3700905,0.0000000,0.0000000,0.0000000,0.1000000,0.0576323,0.0000000,0.0000000,0.0075900,0.0000000,0.0000000,0.0000000,0.0576323,0.0000000,0.0000000,0.0075900,0.0000000,0.0000000,0.0000000,0.0576323,0.0000000,0.0000000,0.0075900,0.0075900,0.0000000,0.0000000,0.0020414,0.0000000,0.0000000,0.0000000,0.0075900,0.0000000,0.0000000,0.0020414,0.0000000,0.0000000,0.0000000,0.0075900,0.0000000,0.0000000,0.0020414
26.5496080,0.9998000,,-0.9596168,-0.2812971,0.0002136,0.0027415,0.0000089,0.0007623,0.0053302,,,,2.1432741,-6.9281516,-21.3700905,0.0000000,0.0000000,0.0000000,0.0199960,0.0579359,0.0000000,0.0000000,0.0076309,0.0000000,0.0000000,0.0000000,0.0579359,0.0000000,0.0000000,0.0076309,0.0000000,0.0000000,0.0000000,0.0579359,0.0000000,0.0000000,0.0076309,0.0076309,0.0000000,0.0000000,0.0020469,0.0000000,0.0000000,0.0000000,0.0076309,0.0000000,0.0000000,0.0020469,0.0000000,0.0000000,0.0000000,0.0076309,0.0000000,0.0000000,0.0020469
26.5629290,1.1496000,,-0.9596168,-0.2812970,0.0002345,0.0027422,-0.0017427,0.0045544,0.0046182,,,,2.1432741,-6.9281516,-21.3700905,0.0000000,0.0000000,0.0000000,0.0229920,0.0582868,0.0000000,0.0000000,0.0076780,0.0000000,0.0000000,0.0000000,0.0582868,0.0000000,0.0000000,0.0076780,0.0000000,0.0000000,0.0000000,0.0582868,0.0000000,0.0000000,0.0076780,0.0076780,0.0000000,0.0000000,0.0020532,0.0000000,0.0000000,0.0000000,0.0076780,0.0000000,0.0000000,0.0020532,0.0000000,0.0000000,0.0000000,0.0076780,0.0000000,0.0000000,0.0020532
26.5837510,1.0500500,,-0.9596168,-0.2812970,0.0002448,0.0027433,0.0025085,0.0001028,0.0013325,,,,2.1432741,-6.9281516,-21.3700905,0.0000000,0.0000000,0.0000000,0.0210010,0.0586093,0.0000000,0.0000000,0.0077212,0.0000000,0.0000000,0.0000000,0.0586093,0.0000000,0.0000000,0.0077212,0.0000000,0.0000000,0.0000000,0.0586093,0.0000000,0.0000000,0.0077212,0.0077212,0.0000000,0.0000000,0.0020589,0.0000000,0.0000000,0.0000000,0.0077212,0.0000000,0.0000000,0.0020589,0.0000000,0.0000000,0.0000000,0.0077212,0.0000000,0.0000000,0.0020589
26.6050650,1.0506999,,-0.9596168,-0.2812970,0.0002441,0.0027296,0.0019485,0.0051707,0.0013987,,,,2.1432741,-6.9281516,-21.3700905,0.0000000,0.0000000,0.0000000,0.0210140,0.0589338,0.0000000,0.0000000,0.0077645,0.0000000,0.0000000,0.0000000,0.0589338,0.0000000,0.0000000,0.0077645,0.0000000,0.0000000,0.0000000,0.0589338,0.0000000,0.0000000,0.0077645,0.0077645,0.0000000,0.0000000,0.0020647,0.0000000,0.0000000,0.0000000,0.0077645,0.0000000,0.0000000,0.0020647,0.0000000,0.0000000,0.0000000,0.0077645,0.0000000,0.0000000,0.0020647
26.6250220,0.9995000,,-0.9596168,-0.2812970,0.0002221,0.0027423,-0.0018028,-0.0020380,0.0038655,,,,2.1432741,-6.9281516,-21.3700905,0.0000000,0.0000000,0.0000000,0.0199900,0.0592442,0.0000000,0.0000000,0.0078059,0.0000000,0.0000000,0.0000000,0.0592442,0.0000000,0.0000000,0.0078059,0.0000000,0.0000000,0.0000000,0.0592442,0.0000000,0.0000000,0.0078059,0.0078059,0.0000000,0.0000000,0.0020702,0.0000000,0.0000000,0.0000000,0.0078059,0.0000000,0.0000000,0.0020702,0.0000000,0.0000000,0.0000000,0.0078059,0.0000000,0.0000000,0.0020702
26.6408710,,1.0000600,-0.9596168,-0.2812970,0.0002221,0.0027305,,,,0.0000000,0.0000000,0.0000000,2.1432741,-6.9281516,-21.3700905,0.0000000,0.0000000,0.0000000,0.1000060,0.0576619,0.0000000,0.0000000,0.0075974,0.0000000,0.0000000,0.0000000,0.0576619,0.0000000,0.0000000,0.0075974,0.0000000,0.0000000,0.0000000,0.0576619,0.0000000,0.0000000,0.0075974,0.0075974,0.0000000,0.0000000,0.0020427,0.0000000,0.0000000,0.0000000,0.0075974,0.0000000,0.0000000,0.0020427,0.0000000,0.0000000,0.0000000,0.0075974,0.0000000,0.0000000,0.0020427
26.6547880,0.9999500,,-0.9596168,-0.2812971,0.0001994,0.0027305,-0.0036938,-0.0010419,0.0107218,,,,2.1432741,-6.9281516,-21.3700905,0.0000000,0.0000000,0.0000000,0.0199990,0.0579658,0.0000000,0.0000000,0.0076383,0.0000000,0.0000000,0.0000000,0.0579658,0.0000000,0.0000000,0.0076383,0.0000000,0.0000000,0.0000000,0.0579658,0.0000000,0.0000000,0.0076383,0.0076383,0.0000000,0.0000000,0.0020482,0.0000000,0.0000000,0.0000000,0.0076383,0.0000000,0.0000000,0.0020482,0.0000000,0.0000000,0.0000000,0.0076383,0.0000000,0.0000000,0.0020482
26.6674200,1.1497501,,-0.9596168,-0.2812971,0.0002111,0.0027321,0.0002893,-0.0019782,0.0043844,,,,2.1432741,-6.9281516,-21.3700905,0.0000000,0.0000000,0.0000000,0.0229950,0.0583170,0.0000000,0.0000000,0.0076855,0.0000000,0.0000000,0.0000000,0.0583170,0.0000000,0.0000000,0.0076855,0.0000000,0.0000000,0.0000000,0.0583170,0.0000000,0.0000000,0.0076855,0.0076855,0.0000000,0.0000000,0.0020545,0.0000000,0.0000000,0.0000000,0.0076855,0.0000000,0.0000000,0.0020545,0.0000000,0.0000000,0.0000000,0.0076855,0.0000000,0.0000000,0.0020545
26.6887830,1.0501500,,-0.9596168,-0.2812970,0.0002336,0.0027243,-0.0001224,-0.0007449,0.0012156,,,,2.1432741,-6.9281516,-21.3700905,0.0000000,0.0000000,0.0000000,0.0210030,0.0586399,0.0000000,0.0000000,0.0077287,0.0000000,0.0000000,0.0000000,0.0586399,0.0000000,0.0000000,0.0077287,0.0000000,0.0000000,0.0000000,0.0586399,0.0000000,0.0000000,0.0077287,0.0077287,0.0000000,0.0000000,0.0020602,0.0000000,0.0000000,0.0000000,0.0077287,0.0000000,0.0000000,0.0020602,0.0000000,0.0000000,0.0000000,0.0077287,0.0000000,0.0000000,0.0020602
26.7102750,0.9999000,,-0.9596168,-0.2812971,0.0002206,0.0027448,-0.0001451,-0.0032716,0.0025533,,,,2.1432741,-6.9281516,-21.3700905,0.0000000,0.0000000,0.0000000,0.0199980,0.0589490,0.0000000,0.0000000,0.0077699,0.0000000,0.0000000,0.0000000,0.0589490,0.0000000,0.0000000,0.0077699,0.0000000,0.0000000,0.0000000,0.0589490,0.0000000,0.0000000,0.0077699,0.0077699,0.0000000,0.0000000,0.0020657,0.0000000,0.0000000,0.0000000,0.0077699,0.0000000,0.0000000,0.0020657,0.0000000,0.0000000,0.0000000,0.0077699,0.0000000,0.0000000,0.0020657
26.7280960,,0.9999100,-0.9596168,-0.2812971,0.0002129,0.0027597,,,,0.0000000,0.0000000,0.0000000,2.1432741,-6.9281516,-21.3700905,0.0000000,0.0000000,0.0000000,0.0999910,0.0573822,0.0000000,0.0000000,0.0075634,0.0000000,0.0000000,0.0000000,0.0573822,0.0000000,0.0000000,0.0075634,0.0000000,0.0000000,0.0000000,0.0573822,0.0000000,0.0000000,0.0075634,0.0075634,0.0000000,0.0000000,0.0020385,0.0000000,0.0000000,0.0000000,0.0075634,0.0000000,0.0000000,0.0020385,0.0000000,0.0000000,0.0000000,0.0075634,0.0000000,0.0000000,0.0020385
26.7416880,1.0000000,,-0.9596168,-0.2812971,0.0002129,0.0027597,-0.0021172,-0.0047715,0.0061518,,,,2.1432741,-6.9281516,-21.3700905,0.0000000,0.0000000,0.0000000,0.0200000,0.0576847,0.0000000,0.0000000,0.0076042,0.0000000,0.0000000,0.0000000,0.0576847,0.0000000,0.0000000,0.0076042,0.0000000,0.0000000,0.0000000,0.0576847,0.0000000,0.0000000,0.0076042,0.0076042,0.0000000,0.0000000,0.0020440,0.0000000,0.0000000,0.0000000,0.0076042,0.0000000,0.0000000,0.0020440,0.0000000,0.0000000,0.0000000,0.0076042,0.0000000,0.0000000,0.0020440
26.7549090,1.3000001,,-0.9596167,-0.2812971,0.0001772,0.0027788,0.0000019,-0.0040490,0.0113691,,,,2.1432741,-6.9281516,-21.3700905,0.0000000,0.0000000,0.0000000,0.0260000,0.0580802,0.0000000,0.0000000,0.0076574,0.0000000,0.0000000,0.0000000,0.0580802,0.0000000,0.0000000,0.0076574,0.0000000,0.0000000,0.0000000,0.0580802,0.0000000,0.0000000,0.0076574,0.0076574,0.0000000,0.0000000,0.0020511,0.0000000,0.0000000,0.0000000,0.0076574,0.0000000,0.0000000,0.0020511,0.0000000,0.0000000,0.0000000,0.0076574,0.0000000,0.0000000,0.0020511
26.7772230,1.0502501,,-0.9596167,-0.2812971,0.0001980,0.0027732,-0.0030050,0.0002109,0.0005500,,,,2.1432741,-6.9281516,-21.3700905,0.0000000,0.0000000,0.0000000,0.0210050,0.0584019,0.0000000,0.0000000,0.0077006,0.0000000,0.0000000,0.0000000,0.0584019,0.0000000,0.0000000,0.0077006,0.0000000,0.0000000,0.0000000,0.0584019,0.0000000,0.0000000,0.0077006,0.0077006,0.0000000,0.0000000,0.0020569,0.0000000,0.0000000,0.0000000,0.0077006,0.0000000,0.0000000,0.0020569,0.0000000,0.0000000,0.0000000,0.0077006,0.0000000,0.0000000,0.0020569
26.7960300,1.0000000,,-0.9596167,-0.2812970,0.0002234,0.0027671,-0.0032573,-0.0015654,-0.0046155,,,,2.1432741,-6.9281516,-21.3700905,0.0000000,0.0000000,0.0000000,0.0200000,0.0587099,0.0000000,0.0000000,0.0077418,0.0000000,0.0000000,0.0000000,0.0587099,0.0000000,0.0000000,0.0077418,0.0000000,0.0000000,0.0000000,0.0587099,0.0000000,0.0000000,0.0077418,0.0077418,0.0000000,0.0000000,0.0020624,0.0000000,0.0000000,0.0000000,0.0077418,0.0000000,0.0000000,0.0020624,0.0000000,0.0000000,0.0000000,0.0077418,0.0000000,0.0000000,0.0020624
26.8158540,1.0003999,,-0.9596167,-0.2812970,0.0002370,0.0027735,-0.0055807,0.0056184,0.0011026,,,,2.1432741,-6.9281516,-21.3700905,0.0000000,0.0000000,0.0000000,0.0200080,0.0590197,0.0000000,0.0000000,0.0077831,0.0000000,0.0000000,0.0000000,0.0590197,0.0000000,0.0000000,0.0077831,0.0000000,0.0000000,0.0000000,0.0590197,0.0000000,0.0000000,0.0077831,0.0077831,0.0000000,0.0000000,0.0020678,0.0000000,0.0000000,0.0000000,0.0077831,0.0000000,0.0000000,0.0020678,0.0000000,0.0000000,0.0000000,0.0077831,0.0000000,0.0000000,0.0020678
26.8318720,,1.0200200,-0.9596167,-0.2812970,0.0002370,0.0027735,,,,0.0000000,0.0000000,0.0000000,2.1432741,-6.9281516,-21.3700905,0.0000000,0.0000000,0.0000000,0.1020020,0.0574492,0.0000000,0.0000000,0.0075760,0.0000000,0.0000000,0.0000000,0.0574492,0.0000000,0.0000000,0.0075760,0.0000000,0.0000000,0.0000000,0.0574492,0.0000000,0.0000000,0.0075760,0.0075760,0.0000000,0.0000000,0.0020405,0.0000000,0.0000000,0.0000000,0.0075760,0.0000000,0.0000000,0.0020405,0.0000000,0.0000000,0.0000000,0.0075760,0.0000000,0.0000000,0.0020405
26.8456780,0.9995000,,-0.9596167,-0.2812970,0.0002378,0.0027727,0.0005666,-0.0037368,0.0007878,,,,2.1432741,-6.9281516,-21.3700905,0.0000000,0.0000000,0.0000000,0.0199900,0.0577521,0.0000000,0.0000000,0.0076168,0.0000000,0.0000000,0.0000000,0.0577521,0.0000000,0.0000000,0.0076168,0.0000000,0.0000000,0.0000000,0.0577521,0.0000000,0.0000000,0.0076168,0.0076168,0.0000000,0.0000000,0.0020460,0.0000000,0.0000000,0.0000000,0.0076168,0.0000000,0.0000000,0.0020460,0.0000000,0.0000000,0.0000000,0.0076168,0.0000000,0.0000000,0.0020460
26.8588500,1.1497999,,-0.9596168,-0.2812970,0.0002467,0.0027627,-0.0043935,0.0006035,-0.0008344,,,,2.1432741,-6.9281516,-21.3700905,0.0000000,0.0000000,0.0000000,0.0229960,0.0581024,0.0000000,0.0000000,0.0076640,0.0000000,0.0000000,0.0000000,0.0581024,0.0000000,0.0000000,0.0076640,0.0000000,0.0000000,0.0000000,0.0581024,0.0000000,0.0000000,0.0076640,0.0076640,0.0000000,0.0000000,0.0020523,0.0000000,0.0000000,0.0000000,0.0076640,0.0000000,0.0000000,0.0020523,0.0000000,0.0000000,0.0000000,0.0076640,0.0000000,0.0000000,0.0020523
26.8796760,1.0501500,,-0.9596168,-0.2812970,0.0002372,0.0027367,-0.0022502,0.0046810,-0.0013938,,,,2.1432741,-6.9281516,-21.3700905,0.0000000,0.0000000,0.0000000,0.0210030,0.0584243,0.0000000,0.0000000,0.0077071,0.0000000,0.0000000,0.0000000,0.0584243,0.0000000,0.0000000,0.0077071,0.0000000,0.0000000,0.0000000,0.0584243,0.0000000,0.0000000,0.0077071,0.0077071,0.0000000,0.0000000,0.0020581,0.0000000,0.0000000,0.0000000,0.0077071,0.0000000,0.0000000,0.0020581,0.0000000,0.0000000,0.0000000,0.0077071,0.0000000,0.0000000,0.0020581
26.9010510,1.0504500,,-0.9596168,-0.2812970,0.0002442,0.0027317,0.0017741,0.0067427,-0.0004527,,,,2.1432741,-6.9281516,-21.3700905,0.0000000,0.0000000,0.0000000,0.0210090,0.0587482,0.0000000,0.0000000,0.0077504,0.0000000,0.0000000,0.0000000,0.0587482,0.0000000,0.0000000,0.0077504,0.0000000,0.0000000,0.0000000,0.0587482,0.0000000,0.0000000,0.0077504,0.0077504,0.0000000,0.0000000,0.0020638,0.0000000,0.0000000,0.0000000,0.0077504,0.0000000,0.0000000,0.0020638,0.0000000,0.0000000,0.0000000,0.0077504,0.0000000,0.0000000,0.0020638
26.9210090,0.9994000,,-0.9596169,-0.2812970,0.0002476,0.0027230,0.0018331,0.0048286,0.0044123,,,,2.1432741,-6.9281516,-21.3700905,0.0000000,0.0000000,0.0000000,0.0199880,0.0590580,0.0000000,0.0000000,0.0077917,0.0000000,0.0000000,0.0000000,0.0590580,0.0000000,0.0000000,0.0077917,0.0000000,0.0000000,0.0000000,0.0590580,0.0000000,0.0000000,0.0077917,0.0077917,0.0000000,0.0000000,0.0020693,0.0000000,0.0000000,0.0000000,0.0077917,0.0000000,0.0000000,0.0020693,0.0000000,0.0000000,0.0000000,0.0077917,0.0000000,0.0000000,0.0020693
26.9367190,,1.0000000,-0.9596169,-0.2812970,0.0002476,0.0027195,,,,0.0000000,0.0000000,0.0000000,2.1432741,-6.9281516,-21.3700905,0.0000000,0.0000000,0.0000000,0.1000000,0.0574855,0.0000000,0.0000000,0.0075843,0.0000000,0.0000000,0.0000000,0.0574855,0.0000000,0.0000000,0.0075843,0.0000000,0.0000000,0.0000000,0.0574855,0.0000000,0.0000000,0.0075843,0.0075843,0.0000000,0.0000000,0.0020420,0.0000000,0.0000000,0.0000000,0.0075843,0.0000000,0.0000000,0.0020420,0.0000000,0.0000000,0.0000000,0.0075843,0.0000000,0.0000000,0.0020420
26.9506310,1.0002999,,-0.9596169,-0.2812970,0.0002614,0.0027195,-0.0000676,0.0029026,-0.0021884,,,,2.1432741,-6.9281516,-21.3700905,0.0000000,0.0000000,0.0000000,0.0200060,0.0577889,0.0000000,0.0000000,0.0076252,0.0000000,0.0000000,0.0000000,0.0577889,0.0000000,0.0000000,0.0076252,0.0000000,0.0000000,0.0000000,0.0577889,0.0000000,0.0000000,0.0076252,0.0076252,0.0000000,0.0000000,0.0020474,0.0000000,0.0000000,0.0000000,0.0076252,0.0000000,0.0000000,0.0020474,0.0000000,0.0000000,0.0000000,0.0076252,0.0000000,0.0000000,0.0020474
26.9638470,1.1497000,,-0.9596169,-0.2812969,0.0002884,0.0027153,-0.0004916,0.0012148,-0.0010942,,,,2.1432741,-6.9281516,-21.3700905,0.0000000,0.0000000,0.0000000,0.0229940,0.0581396,0.0000000,0.0000000,0.0076723,0.0000000,0.0000000,0.0000000,0.0581396,0.0000000,0.0000000,0.0076723,0.0000000,0.0000000,0.0000000,0.0581396,0.0000000,0.0000000,0.0076723,0.0076723,0.0000000,0.0000000,0.0020537,0.0000000,0.0000000,0.0000000,0.0076723,0.0000000,0.0000000,0.0020537,0.0000000,0.0000000,0.0000000,0.0076723,0.0000000,0.0000000,0.0020537
26.9846870,1.0501500,,-0.9596169,-0.2812969,0.0002955,0.0027082,-0.0085237,0.0001115,-0.0010354,,,,2.1432741,-6.9281516,-21.3700905,0.0000000,0.0000000,0.0000000,0.0210030,0.0584619,0.0000000,0.0000000,0.0077155,0.0000000,0.0000000,0.0000000,0.0584619,0.0000000,0.0000000,0.0077155,0.0000000,0.0000000,0.0000000,0.0584619,0.0000000,0.0000000,0.0077155,0.0077155,0.0000000,0.0000000,0.0020595,0.0000000,0.0000000,0.0000000,0.0077155,0.0000000,0.0000000,0.0020595,0.0000000,0.0000000,0.0000000,0.0077155,0.0000000,0.0000000,0.0020595
27.0061400,1.0505000,,-0.9596169,-0.2812969,0.0002972,0.0027116,-0.0108384,-0.0011573,0.0038768,,,,2.1432741,-6.9281516,-21.3700905,0.0000000,0.0000000,0.0000000,0.0210100,0.0587861,0.0000000,0.0000000,0.0077588,0.0000000,0.0000000,0.0000000,0.0587861,0.0000000,0.0000000,0.0077588,0.0000000,0.0000000,0.0000000,0.0587861,0.0000000,0.0000000,0.0077588,0.0077588,0.0000000,0.0000000,0.0020653,0.0000000,0.0000000,0.0000000,0.0077588,0.0000000,0.0000000,0.0020653,0.0000000,0.0000000,0.0000000,0.0077588,0.0000000,0.0000000,0.0020653
27.0260160,0.9997500,,-0.9596169,-0.2812969,0.0002883,0.0027182,0.0033622,-0.0015400,0.0012060,,,,2.1432741,-6.9281516,-21.3700905,0.0000000,0.0000000,0.0000000,0.0199950,0.0590964,0.0000000,0.0000000,0.0078002,0.0000000,0.0000000,0.0000000,0.0590964,0.0000000,0.0000000,0.0078002,0.0000000,0.0000000,0.0000000,0.0590964,0.0000000,0.0000000,0.0078002,0.0078002,0.0000000,0.0000000,0.0020707,0.0000000,0.0000000,0.0000000,0.0078002,0.0000000,0.0000000,0.0020707,0.0000000,0.0000000,0.0000000,0.0078002,0.0000000,0.0000000,0.0020707
27.0417440,,1.0000000,-0.9596169,-0.2812969,0.0002883,0.0027241,,,,0.0000000,0.0000000,0.0000000,2.1432741,-6.9281516,-21.3700905,0.0000000,0.0000000,0.0000000,0.1000000,0.0575218,0.0000000,0.0000000,0.0075923,0.0000000,0.0000000,0.0000000,0.0575218,0.0000000,0.0000000,0.0075923,0.0000000,0.0000000,0.0000000,0.0575218,0.0000000,0.0000000,0.0075923,0.0075923,0.0000000,0.0000000,0.0020433,0.0000000,0.0000000,0.0000000,0.0075923,0.0000000,0.0000000,0.0020433,0.0000000,0.0000000,0.0000000,0.0075923,0.0000000,0.0000000,0.0020433
27.0556330,1.0000000,,-0.9596169,-0.2812970,0.0002761,0.0027241,0.0019024,0.0011984,0.0032885,,,,2.1432741,-6.9281516,-21.3700905,0.0000000,0.0000000,0.0000000,0.0200000,0.0578255,0.0000000,0.0000000,0.0076333,0.0000000,0.0000000,0.0000000,0.0578255,0.0000000,0.0000000,0.0076333,0.0000000,0.0000000,0.0000000,0.0578255,0.0000000,0.0000000,0.0076333,0.0076333,0.0000000,0.0000000,0.0020488,0.0000000,0.0000000,0.0000000,0.0076333,0.0000000,0.0000000,0.0020488,0.0000000,0.0000000,0.0000000,0.0076333,0.0000000,0.0000000,0.0020488
27.0688630,1.1496000,,-0.9596169,-0.2812971,0.0002353,0.0027046,0.0006308,0.0010341,0.0028650,,,,2.1432741,-6.9281516,-21.3700905,0.0000000,0.0000000,0.0000000,0.0229920,0.0581765,0.0000000,0.0000000,0.0076804,0.0000000,0.0000000,0.0000000,0.0581765,0.0000000,0.0000000,0.0076804,0.0000000,0.0000000,0.0000000,0.0581765,0.0000000,0.0000000,0.0076804,0.0076804,0.0000000,0.0000000,0.0020551,0.0000000,0.0000000,0.0000000,0.0076804,0.0000000,0.0000000,0.0020551,0.0000000,0.0000000,0.0000000,0.0076804,0.0000000,0.0000000,0.0020551
27.0897610,1.0501500,,-0.9596169,-0.2812971,0.0002146,0.0026979,-0.0002492,-0.0024584,0.0024091,,,,2.1432741,-6.9281516,-21.3700905,0.0000000,0.0000000,0.0000000,0.0210030,0.0584992,0.0000000,0.0000000,0.0077237,0.0000000,0.0000000,0.0000000,0.0584992,0.0000000,0.0000000,0.0077237,0.0000000,0.0000000,0.0000000,0.0584992,0.0000000,0.0000000,0.0077237,0.0077237,0.0000000,0.0000000,0.0020609,0.0000000,0.0000000,0.0000000,0.0077237,0.0000000,0.0000000,0.0020609,0.0000000,0.0000000,0.0000000,0.0077237,0.0000000,0.0000000,0.0020609
27.1110630,1.0505000,,-0.9596169,-0.2812972,0.0001936,0.0026768,0.0012487,0.0043021,-0.0017252,,,,2.1432741,-6.9281516,-21.3700905,0.0000000,0.0000000,0.0000000,0.0210100,0.0588237,0.0000000,0.0000000,0.0077670,0.0000000,0.0000000,0.0000000,0.0588237,0.0000000,0.0000000,0.0077670,0.0000000,0.0000000,0.0000000,0.0588237,0.0000000,0.0000000,0.0077670,0.0077670,0.0000000,0.0000000,0.0020666,0.0000000,0.0000000,0.0000000,0.0077670,0.0000000,0.0000000,0.0020666,0.0000000,0.0000000,0.0000000,0.0077670,0.0000000,0.0000000,0.0020666
27.1311030,,1.0099800,-0.9596169,-0.2812972,0.0001829,0.0026848,,,,0.0000000,0.0000000,0.0000000,2.1432741,-6.9281516,-21.3700905,0.0000000,0.0000000,0.0000000,0.1009980,0.0572635,0.0000000,0.0000000,0.0075610,0.0000000,0.0000000,0.0000000,0.0572635,0.0000000,0.0000000,0.0075610,0.0000000,0.0000000,0.0000000,0.0572635,0.0000000,0.0000000,0.0075610,0.0075610,0.0000000,0.0000000,0.0020394,0.0000000,0.0000000,0.0000000,0.0075610,0.0000000,0.0000000,0.0020394,0.0000000,0.0000000,0.0000000,0.0075610,0.0000000,0.0000000,0.0020394
27.1445180,0.9996000,,-0.9596169,-0.2812972,0.0001829,0.0026848,-0.0041135,0.0006404,0.0069499,,,,2.1432741,-6.9281516,-21.3700905,0.0000000,0.0000000,0.0000000,0.0199920,0.0575658,0.0000000,0.0000000,0.0076018,0.0000000,0.0000000,0.0000000,0.0575658,0.0000000,0.0000000,0.0076018,0.0000000,0.0000000,0.0000000,0.0575658,0.0000000,0.0000000,0.0076018,0.0076018,0.0000000,0.0000000,0.0020449,0.0000000,0.0000000,0.0000000,0.0076018,0.0000000,0.0000000,0.0020449,0.0000000,0.0000000,0.0000000,0.0076018,0.0000000,0.0000000,0.0020449
27.1579360,1.3498501,,-0.9596168,-0.2812971,0.0002159,0.0027189,-0.0003935,-0.0008700,-0.0006831,,,,2.1432741,-6.9281516,-21.3700905,0.0000000,0.0000000,0.0000000,0.0269970,0.0579763,0.0000000,0.0000000,0.0076571,0.0000000,0.0000000,0.0000000,0.0579763,0.0000000,0.0000000,0.0076571,0.0000000,0.0000000,0.0000000,0.0579763,0.0000000,0.0000000,0.0076571,0.0076571,0.0000000,0.0000000,0.0020523,0.0000000,0.0000000,0.0000000,0.0076571,0.0000000,0.0000000,0.0020523,0.0000000,0.0000000,0.0000000,0.0076571,0.0000000,0.0000000,0.0020523
27.1781550,1.0000000,,-0.9596168,-0.2812971,0.0002335,0.0027517,0.0034119,-0.0020829,-0.0030347,,,,2.1432741,-6.9281516,-21.3700905,0.0000000,0.0000000,0.0000000,0.0200000,0.0582826,0.0000000,0.0000000,0.0076982,0.0000000,0.0000000,0.0000000,0.0582826,0.0000000,0.0000000,0.0076982,0.0000000,0.0000000,0.0000000,0.0582826,0.0000000,0.0000000,0.0076982,0.0076982,0.0000000,0.0000000,0.0020578,0.0000000,0.0000000,0.0000000,0.0076982,0.0000000,0.0000000,0.0020578,0.0000000,0.0000000,0.0000000,0.0076982,0.0000000,0.0000000,0.0020578
27.1991850,0.9999000,,-0.9596168,-0.2812971,0.0002389,0.0027480,0.0009278,-0.0015069,0.0038537,,,,2.1432741,-6.9281516,-21.3700905,0.0000000,0.0000000,0.0000000,0.0199980,0.0585905,0.0000000,0.0000000,0.0077394,0.0000000,0.0000000,0.0000000,0.0585905,0.0000000,0.0000000,0.0077394,0.0000000,0.0000000,0.0000000,0.0585905,0.0000000,0.0000000,0.0077394,0.0077394,0.0000000,0.0000000,0.0020633,0.0000000,0.0000000,0.0000000,0.0077394,0.0000000,0.0000000,0.0020633,0.0000000,0.0000000,0.0000000,0.0077394,0.0000000,0.0000000,0.0020633
27.2179190,1.0001501,,-0.9596168,-0.2812971,0.0002490,0.0027424,0.0011658,-0.0004940,-0.0002704,,,,2.1432741,-6.9281516,-21.3700905,0.0000000,0.0000000,0.0000000,0.0200030,0.0589001,0.0000000,0.0000000,0.0077807,0.0000000,0.0000000,0.0000000,0.0589001,0.0000000,0.0000000,0.0077807,0.0000000,0.0000000,0.0000000,0.0589001,0.0000000,0.0000000,0.0077807,0.0077807,0.0000000,0.0000000,0.0020688,0.0000000,0.0000000,0.0000000,0.0077807,0.0000000,0.0000000,0.0020688,0.0000000,0.0000000,0.0000000,0.0077807,0.0000000,0.0000000,0.0020688
27.2338650,,1.0000700,-0.9596168,-0.2812971,0.0002490,0.0027424,,,,0.0000000,0.0000000,0.0000000,2.1432741,-6.9281516,-21.3700905,0.0000000,0.0000000,0.0000000,0.1000070,0.0573359,0.0000000,0.0000000,0.0075741,0.0000000,0.0000000,0.0000000,0.0573359,0.0000000,0.0000000,0.0075741,0.0000000,0.0000000,0.0000000,0.0573359,0.0000000,0.0000000,0.0075741,0.0075741,0.0000000,0.0000000,0.0020415,0.0000000,0.0000000,0.0000000,0.0075741,0.0000000,0.0000000,0.0020415,0.0000000,0.0000000,0.0000000,0.0075741,0.0000000,0.0000000,0.0020415
27.2476870,0.9998500,,-0.9596169,-0.2812971,0.0002521,0.0027107,-0.0026062,0.0041094,0.0037711,,,,2.1432741,-6.9281516,-21.3700905,0.0000000,0.0000000,0.0000000,0.0199970,0.0576388,0.0000000,0.0000000,0.0076150,0.0000000,0.0000000,0.0000000,0.0576388,0.0000000,0.0000000,0.0076150,0.0000000,0.0000000,0.0000000,0.0576388,0.0000000,0.0000000,0.0076150,0.0076150,0.0000000,0.0000000,0.0020469,0.0000000,0.0000000,0.0000000,0.0076150,0.0000000,0.0000000,0.0020469,0.0000000,0.0000000,0.0000000,0.0076150,0.0000000,0.0000000,0.0020469
27.2623410,1.1504500,,-0.9596169,-0.2812971,0.0002385,0.0026920,0.0049988,0.0034661,0.0062801,,,,2.1432741,-6.9281516,-21.3700905,0.0000000,0.0000000,0.0000000,0.0230090,0.0579892,0.0000000,0.0000000,0.0076622,0.0000000,0.0000000,0.0000000,0.0579892,0.0000000,0.0000000,0.0076622,0.0000000,0.0000000,0.0000000,0.0579892,0.0000000,0.0000000,0.0076622,0.0076621,0.0000000,0.0000000,0.0020533,0.0000000,0.0000000,0.0000000,0.0076621,0.0000000,0.0000000,0.0020533,0.0000000,0.0000000,0.0000000,0.0076621,0.0000000,0.0000000,0.0020533
27.2809770,0.9997000,,-0.9596169,-0.2812970,0.0002651,0.0027078,-0.0055496,-0.0060642,0.0043607,,,,2.1432741,-6.9281516,-21.3700905,0.0000000,0.0000000,0.0000000,0.0199940,0.0582956,0.0000000,0.0000000,0.0077033,0.0000000,0.0000000,0.0000000,0.0582956,0.0000000,0.0000000,0.0077033,0.0000000,0.0000000,0.0000000,0.0582956,0.0000000,0.0000000,0.0077033,0.0077033,0.0000000,0.0000000,0.0020587,0.0000000,0.0000000,0.0000000,0.0077033,0.0000000,0.0000000,0.0020587,0.0000000,0.0000000,0.0000000,0.0077033,0.0000000,0.0000000,0.0020587
27.3008100,1.0006500,,-0.9596169,-0.2812970,0.0002838,0.0027241,-0.0022713,-0.0051988,0.0029128,,,,2.1432741,-6.9281516,-21.3700905,0.0000000,0.0000000,0.0000000,0.0200130,0.0586039,0.0000000,0.0000000,0.0077445,0.0000000,0.0000000,0.0000000,0.0586039,0.0000000,0.0000000,0.0077445,0.0000000,0.0000000,0.0000000,0.0586039,0.0000000,0.0000000,0.0077445,0.0077445,0.0000000,0.0000000,0.0020642,0.0000000,0.0000000,0.0000000,0.0077445,0.0000000,0.0000000,0.0020642,0.0000000,0.0000000,0.0000000,0.0077445,0.0000000,0.0000000,0.0020642
27.3216070,1.0493001,,-0.9596168,-0.2812970,0.0002737,0.0027345,-0.0016544,-0.0001351,-0.0012292,,,,2.1432741,-6.9281516,-21.3700905,0.0000000,0.0000000,0.0000000,0.0209860,0.0589290,0.0000000,0.0000000,0.0077879,0.0000000,0.0000000,0.0000000,0.0589290,0.0000000,0.0000000,0.0077879,0.0000000,0.0000000,0.0000000,0.0589290,0.0000000,0.0000000,0.0077879,0.0077879,0.0000000,0.0000000,0.0020700,0.0000000,0.0000000,0.0000000,0.0077879,0.0000000,0.0000000,0.0020700,0.0000000,0.0000000,0.0000000,0.0077879,0.0000000,0.0000000,0.0020700
27.3380470,,0.9999900,-0.9596168,-0.2812970,0.0002737,0.0027345,,,,0.0000000,0.0000000,0.0000000,2.1432741,-6.9281516,-21.3700905,0.0000000,0.0000000,0.0000000,0.0999990,0.0573632,0.0000000,0.0000000,0.0075810,0.0000000,0.0000000,0.0000000,0.0573632,0.0000000,0.0000000,0.0075810,0.0000000,0.0000000,0.0000000,0.0573632,0.0000000,0.0000000,0.0075810,0.0075810,0.0000000,0.0000000,0.0020426,0.0000000,0.0000000,0.0000000,0.0075810,0.0000000,0.0000000,0.0020426,0.0000000,0.0000000,0.0000000,0.0075810,0.0000000,0.0000000,0.0020426
27.3515840,1.1000000,,-0.9596168,-0.2812971,0.0002497,0.0027426,0.0034986,0.0004436,-0.0025677,,,,2.1432741,-6.9281516,-21.3700905,0.0000000,0.0000000,0.0000000,0.0220000,0.0576968,0.0000000,0.0000000,0.0076260,0.0000000,0.0000000,0.0000000,0.0576968,0.0000000,0.0000000,0.0076260,0.0000000,0.0000000,0.0000000,0.0576968,0.0000000,0.0000000,0.0076260,0.0076260,0.0000000,0.0000000,0.0020487,0.0000000,0.0000000,0.0000000,0.0076260,0.0000000,0.0000000,0.0020487,0.0000000,0.0000000,0.0000000,0.0076260,0.0000000,0.0000000,0.0020487
27.3661760,1.0500000,,-0.9596168,-0.2812971,0.0002445,0.0027174,0.0029319,0.0050741,-0.0005514,,,,2.1432741,-6.9281516,-21.3700905,0.0000000,0.0000000,0.0000000,0.0210000,0.0580171,0.0000000,0.0000000,0.0076690,0.0000000,0.0000000,0.0000000,0.0580171,0.0000000,0.0000000,0.0076690,0.0000000,0.0000000,0.0000000,0.0580171,0.0000000,0.0000000,0.0076690,0.0076690,0.0000000,0.0000000,0.0020544,0.0000000,0.0000000,0.0000000,0.0076690,0.0000000,0.0000000,0.0020544,0.0000000,0.0000000,0.0000000,0.0076690,0.0000000,0.0000000,0.0020544
27.3848800,1.0001000,,-0.9596169,-0.2812972,0.0002176,0.0027012,0.0077373,0.0022395,-0.0014964,,,,2.1432741,-6.9281516,-21.3700905,0.0000000,0.0000000,0.0000000,0.0200020,0.0583239,0.0000000,0.0000000,0.0077102,0.0000000,0.0000000,0.0000000,0.0583239,0.0000000,0.0000000,0.0077102,0.0000000,0.0000000,0.0000000,0.0583239,0.0000000,0.0000000,0.0077102,0.0077102,0.0000000,0.0000000,0.0020599,0.0000000,0.0000000,0.0000000,0.0077102,0.0000000,0.0000000,0.0020599,0.0000000,0.0000000,0.0000000,0.0077102,0.0000000,0.0000000,0.0020599
27.4049880,1.0001000,,-0.9596168,-0.2812973,0.0001786,0.0027123,0.0051962,0.0030424,0.0041346,,,,2.1432741,-6.9281516,-21.3700905,0.0000000,0.0000000,0.0000000,0.0200020,0.0586323,0.0000000,0.0000000,0.0077515,0.0000000,0.0000000,0.0000000,0.0586323,0.0000000,0.0000000,0.0077515,0.0000000,0.0000000,0.0000000,0.0586323,0.0000000,0.0000000,0.0077515,0.0077515,0.0000000,0.0000000,0.0020654,0.0000000,0.0000000,0.0000000,0.0077515,0.0000000,0.0000000,0.0020654,0.0000000,0.0000000,0.0000000,0.0077515,0.0000000,0.0000000,0.0020654
27.4246800,1.0000000,,-0.9596168,-0.2812974,0.0001408,0.0027158,-0.0022161,0.0002547,-0.0001300,,,,2.1432741,-6.9281516,-21.3700905,0.0000000,0.0000000,0.0000000,0.0200000,0.0589424,0.0000000,0.0000000,0.0077928,0.0000000,0.0000000,0.0000000,0.0589424,0.0000000,0.0000000,0.0077928,0.0000000,0.0000000,0.0000000,0.0589424,0.0000000,0.0000000,0.0077928,0.0077928,0.0000000,0.0000000,0.0020709,0.0000000,0.0000000,0.0000000,0.0077928,0.0000000,0.0000000,0.0020709,0.0000000,0.0000000,0.0000000,0.0077928,0.0000000,0.0000000,0.0020709
27.4406650,,1.0200100,-0.9596168,-0.2812974,0.0001408,0.0027158,,,,0.0000000,0.0000000,0.0000000,2.1432741,-6.9281516,-21.3700905,0.0000000,0.0000000,0.0000000,0.1020010,0.0573759,0.0000000,0.0000000,0.0075857,0.0000000,0.0000000,0.0000000,0.0573759,0.0000000,0.0000000,0.0075857,0.0000000,0.0000000,0.0000000,0.0573759,0.0000000,0.0000000,0.0075857,0.0075857,0.0000000,0.0000000,0.0020435,0.0000000,0.0000000,0.0000000,0.0075857,0.0000000,0.0000000,0.0020435,0.0000000,0.0000000,0.0000000,0.0075857,0.0000000,0.0000000,0.0020435
27.4546830,1.0998499,,-0.9596167,-0.2812974,0.0001343,0.0027604,-0.0012835,-0.0122780,-0.0039789,,,,2.1432741,-6.9281516,-21.3700905,0.0000000,0.0000000,0.0000000,0.0219970,0.0577097,0.0000000,0.0000000,0.0076307,0.0000000,0.0000000,0.0000000,0.0577097,0.0000000,0.0000000,0.0076307,0.0000000,0.0000000,0.0000000,0.0577097,0.0000000,0.0000000,0.0076307,0.0076307,0.0000000,0.0000000,0.0020495,0.0000000,0.0000000,0.0000000,0.0076307,0.0000000,0.0000000,0.0020495,0.0000000,0.0000000,0.0000000,0.0076307,0.0000000,0.0000000,0.0020495
27.4676100,1.0498999,,-0.9596166,-0.2812973,0.0001453,0.0027911,-0.0054330,-0.0021641,-0.0039502,,,,2.1432741,-6.9281516,-21.3700905,0.0000000,0.0000000,0.0000000,0.0209980,0.0580301,0.0000000,0.0000000,0.0076738,0.0000000,0.0000000,0.0000000,0.0580301,0.0000000,0.0000000,0.0076738,0.0000000,0.0000000,0.0000000,0.0580301,0.0000000,0.0000000,0.0076738,0.0076738,0.0000000,0.0000000,0.0020553,0.0000000,0.0000000,0.0000000,0.0076738,0.0000000,0.0000000,0.0020553,0.0000000,0.0000000,0.0000000,0.0076738,0.0000000,0.0000000,0.0020553
27.4891090,1.0504000,,-0.9596148,-0.2813032,0.0001358,0.0028417,0.0046535,-0.0224367,-0.0239554,,,,2.1432741,-6.9281516,-21.3700905,0.0000000,0.0000000,0.0000000,0.0210080,0.0583526,0.0000000,0.0000000,0.0077171,0.0000000,0.0000000,0.0000000,0.0583526,0.0000000,0.0000000,0.0077171,0.0000000,0.0000000,0.0000000,0.0583526,0.0000000,0.0000000,0.0077171,0.0077171,0.0000000,0.0000000,0.0020611,0.0000000,0.0000000,0.0000000,0.0077171,0.0000000,0.0000000,0.0020611,0.0000000,0.0000000,0.0000000,0.0077171,0.0000000,0.0000000,0.0020611
27.5088790,0.9995500,,-0.9595755,-0.2814305,0.0003511,0.0033472,0.0052107,-0.0032075,-0.0551982,,,,2.1432741,-6.9281516,-21.3700905,0.0000000,0.0000000,0.0000000,0.0199910,0.0586611,0.0000000,0.0000000,0.0077583,0.0000000,0.0000000,0.0000000,0.0586611,0.0000000,0.0000000,0.0077583,0.0000000,0.0000000,0.0000000,0.0586611,0.0000000,0.0000000,0.0077583,0.0077583,0.0000000,0.0000000,0.0020665,0.0000000,0.0000000,0.0000000,0.0077583,0.0000000,0.0000000,0.0020665,0.0000000,0.0000000,0.0000000,0.0077583,0.0000000,0.0000000,0.0020665
27.5287390,1.0008000,,-0.9595445,-0.2815305,0.0004701,0.0037728,-0.0102121,0.0033248,-0.0674093,,,,2.1432741,-6.9281516,-21.3700905,0.0000000,0.0000000,0.0000000,0.0200160,0.0589717,0.0000000,0.0000000,0.0077997,0.0000000,0.0000000,0.0000000,0.0589717,0.0000000,0.0000000,0.0077997,0.0000000,0.0000000,0.0000000,0.0589717,0.0000000,0.0000000,0.0077997,0.0077997,0.0000000,0.0000000,0.0020720,0.0000000,0.0000000,0.0000000,0.0077997,0.0000000,0.0000000,0.0020720,0.0000000,0.0000000,0.0000000,0.0077997,0.0000000,0.0000000,0.0020720
27.5449950,,1.0199300,-0.9595445,-0.2815305,0.0004701,0.0037728,,,,0.0000000,0.0000000,0.0000000,2.1432741,-6.9281516,-21.3700905,0.0000000,0.0000000,0.0000000,0.1019930,0.0574037,0.0000000,0.0000000,0.0075923,0.0000000,0.0000000,0.0000000,0.0574037,0.0000000,0.0000000,0.0075923,0.0000000,0.0000000,0.0000000,0.0574037,0.0000000,0.0000000,0.0075923,0.0075923,0.0000000,0.0000000,0.0020446,0.0000000,0.0000000,0.0000000,0.0075923,0.0000000,0.0000000,0.0020446,0.0000000,0.0000000,0.0000000,0.0075923,0.0000000,0.0000000,0.0020446
27.5585860,1.0993501,,-0.9595302,-0.2815723,0.0005252,0.0042524,-0.0046559,0.0151588,-0.0595988,,,,2.1432741,-6.9281516,-21.3700905,0.0000000,0.0000000,0.0000000,0.0219870,0.0577376,0.0000000,0.0000000,0.0076374,0.0000000,0.0000000,0.0000000,0.0577376,0.0000000,0.0000000,0.0076374,0.0000000,0.0000000,0.0000000,0.0577376,0.0000000,0.0000000,0.0076374,0.0076374,0.0000000,0.0000000,0.0020506,0.0000000,0.0000000,0.0000000,0.0076374,0.0000000,0.0000000,0.0020506,0.0000000,0.0000000,0.0000000,0.0076374,0.0000000,0.0000000,0.0020506
27.5719300,1.0498999,,-0.9594994,-0.2816618,0.0007165,0.0051064,0.0098104,0.0155140,-0.0959920,,,,2.1432741,-6.9281516,-21.3700905,0.0000000,0.0000000,0.0000000,0.0209980,0.0580583,0.0000000,0.0000000,0.0076805,0.0000000,0.0000000,0.0000000,0.0580583,0.0000000,0.0000000,0.0076805,0.0000000,0.0000000,0.0000000,0.0580583,0.0000000,0.0000000,0.0076805,0.0076805,0.0000000,0.0000000,0.0020564,0.0000000,0.0000000,0.0000000,0.0076805,0.0000000,0.0000000,0.0020564,0.0000000,0.0000000,0.0000000,0.0076805,0.0000000,0.0000000,0.0020564
27.5919670,1.0000000,,-0.9594820,-0.2816955,0.0008442,0.0062838,0.0305934,0.1030863,-0.0084986,,,,2.1432741,-6.9281516,-21.3700905,0.0000000,0.0000000,0.0000000,0.0200000,0.0583655,0.0000000,0.0000000,0.0077217,0.0000000,0.0000000,0.0000000,0.0583655,0.0000000,0.0000000,0.0077217,0.0000000,0.0000000,0.0000000,0.0583655,0.0000000,0.0000000,0.0077217,0.0077217,0.0000000,0.0000000,0.0020619,0.0000000,0.0000000,0.0000000,0.0077217,0.0000000,0.0000000,0.0020619,0.0000000,0.0000000,0.0000000,0.0077217,0.0000000,0.0000000,0.0020619
27.6117730,1.0006500,,-0.9594515,-0.2817686,0.0009698,0.0074799,0.1081464,-0.0843516,0.0606158,,,,2.1432741,-6.9281516,-21.3700905,0.0000000,0.0000000,0.0000000,0.0200130,0.0586746,0.0000000,0.0000000,0.0077630,0.0000000,0.0000000,0.0000000,0.0586746,0.0000000,0.0000000,0.0077630,0.0000000,0.0000000,0.0000000,0.0586746,0.0000000,0.0000000,0.0077630,0.0077630,0.0000000,0.0000000,0.0020674,0.0000000,0.0000000,0.0000000,0.0077630,0.0000000,0.0000000,0.0020674,0.0000000,0.0000000,0.0000000,0.0077630,0.0000000,0.0000000,0.0020674
27.6341920,1.0493001,,-0.9594302,-0.2818211,0.0010168,0.0082372,0.0542716,0.0417094,0.3478585,,,,2.1432886,-6.9281516,-21.3701668,0.0013832,-0.0000090,-0.0073104,0.0209860,0.0590004,0.0000000,0.0000000,0.0078064,0.0000000,0.0000000,0.0000000,0.0590004,0.0000000,0.0000000,0.0078064,0.0000000,0.0000000,0.0000000,0.0590004,0.0000000,0.0000000,0.0078064,0.0078064,0.0000000,0.0000000,0.0020731,0.0000000,0.0000000,0.0000000,0.0078064,0.0000000,0.0000000,0.0020731,0.0000000,0.0000000,0.0000000,0.0078064,0.0000000,0.0000000,0.0020731
27.6505460,,1.0200499,-0.9594302,-0.2818211,0.0010168,0.0082372,,,,-0.1439484,-0.0925471,-0.0004607,2.1394591,-6.9306135,-21.3701763,0.0008765,-0.0003347,-0.0073118,0.1020050,0.0574309,0.0000000,0.0000000,0.0075988,0.0000000,0.0000000,0.0000000,0.0574309,0.0000000,0.0000000,0.0075988,0.0000000,0.0000000,0.0000000,0.0574309,0.0000000,0.0000000,0.0075988,0.0075988,0.0000000,0.0000000,0.0020456,0.0000000,0.0000000,0.0000000,0.0075988,0.0000000,0.0000000,0.0020456,0.0000000,0.0000000,0.0000000,0.0075988,0.0000000,0.0000000,0.0020456
27.6642250,1.1001000,,-0.9594256,-0.2818202,0.0010528,0.0088142,-0.0643025,-0.0130351,-0.0668773,,,,2.1394591,-6.9306135,-21.3701763,0.0000000,0.0000000,0.0000000,0.0220020,0.0577653,0.0000000,0.0000000,0.0076438,0.0000000,0.0000000,0.0000000,0.0577653,0.0000000,0.0000000,0.0076438,0.0000000,0.0000000,0.0000000,0.0577653,0.0000000,0.0000000,0.0076438,0.0076438,0.0000000,0.0000000,0.0020517,0.0000000,0.0000000,0.0000000,0.0076438,0.0000000,0.0000000,0.0020517,0.0000000,0.0000000,0.0000000,0.0076438,0.0000000,0.0000000,0.0020517
27.6777190,1.1504500,,-0.9593893,-0.2819412,0.0013864,0.0088759,-0.0481577,0.1876048,-0.0528021,,,,2.1394591,-6.9306135,-21.3701763,0.0000000,0.0000000,0.0000000,0.0230090,0.0581171,0.0000000,0.0000000,0.0076911,0.0000000,0.0000000,0.0000000,0.0581171,0.0000000,0.0000000,0.0076911,0.0000000,0.0000000,0.0000000,0.0581171,0.0000000,0.0000000,0.0076911,0.0076911,0.0000000,0.0000000,0.0020580,0.0000000,0.0000000,0.0000000,0.0076911,0.0000000,0.0000000,0.0020580,0.0000000,0.0000000,0.0000000,0.0076911,0.0000000,0.0000000,0.0020580
27.6980940,0.9997500,,-0.9593834,-0.2819594,0.0015633,0.0089164,0.1183772,0.3182210,-0.2291140,,,,2.1395137,-6.9306550,-21.3701324,0.0054696,-0.0041438,0.0044707,0.0199950,0.0584246,0.0000000,0.0000000,0.0077323,0.0000000,0.0000000,0.0000000,0.0584246,0.0000000,0.0000000,0.0077323,0.0000000,0.0000000,0.0000000,0.0584246,0.0000000,0.0000000,0.0077323,0.0077323,0.0000000,0.0000000,0.0020635,0.0000000,0.0000000,0.0000000,0.0077323,0.0000000,0.0000000,0.0020635,0.0000000,0.0000000,0.0000000,0.0077323,0.0000000,0.0000000,0.0020635
27.7175510,0.9997500,,-0.9593446,-0.2820925,0.0023047,0.0087030,-0.0308611,-0.1529241,-0.0025728,,,,2.1395137,-6.9306550,-21.3701324,0.0000000,0.0000000,0.0000000,0.0199950,0.0587339,0.0000000,0.0000000,0.0077736,0.0000000,0.0000000,0.0000000,0.0587339,0.0000000,0.0000000,0.0077736,0.0000000,0.0000000,0.0000000,0.0587339,0.0000000,0.0000000,0.0077736,0.0077736,0.0000000,0.0000000,0.0020689,0.0000000,0.0000000,0.0000000,0.0077736,0.0000000,0.0000000,0.0020689,0.0000000,0.0000000,0.0000000,0.0077736,0.0000000,0.0000000,0.0020689
27.7368740,,0.9999800,-0.9593446,-0.2820925,0.0023047,0.0094689,,,,-0.5247032,-0.3840255,-0.0010169,2.1256158,-6.9408245,-21.3701611,-0.0018394,-0.0013460,-0.0000037,0.0999980,0.0571783,0.0000000,0.0000000,0.0075677,0.0000000,0.0000000,0.0000000,0.0571783,0.0000000,0.0000000,0.0075677,0.0000000,0.0000000,0.0000000,0.0571783,0.0000000,0.0000000,0.0075677,0.0075677,0.0000000,0.0000000,0.0020417,0.0000000,0.0000000,0.0000000,0.0075677,0.0000000,0.0000000,0.0020417,0.0000000,0.0000000,0.0000000,0.0075677,0.0000000,0.0000000,0.0020417
27.7498900,1.1009500,,-0.9592950,-0.2822303,0.0028509,0.0094689,-0.0668145,0.1247480,-0.1962250,,,,2.1256158,-6.9408245,-21.3701611,0.0000000,0.0000000,0.0000000,0.0220190,0.0575116,0.0000000,0.0000000,0.0076128,0.0000000,0.0000000,0.0000000,0.0575116,0.0000000,0.0000000,0.0076128,0.0000000,0.0000000,0.0000000,0.0575116,0.0000000,0.0000000,0.0076128,0.0076128,0.0000000,0.0000000,0.0020477,0.0000000,0.0000000,0.0000000,0.0076128,0.0000000,0.0000000,0.0020477,0.0000000,0.0000000,0.0000000,0.0076128,0.0000000,0.0000000,0.0020477
27.7630780,1.1490000,,-0.9592527,-0.2823239,0.0035516,0.0106038,0.1565723,0.6639518,-0.2122788,,,,2.1257463,-6.9409504,-21.3701096,0.0113498,-0.0109622,0.0045330,0.0229800,0.0578615,0.0000000,0.0000000,0.0076599,0.0000000,0.0000000,0.0000000,0.0578615,0.0000000,0.0000000,0.0076599,0.0000000,0.0000000,0.0000000,0.0578615,0.0000000,0.0000000,0.0076599,0.0076599,0.0000000,0.0000000,0.0020540,0.0000000,0.0000000,0.0000000,0.0076599,0.0000000,0.0000000,0.0020540,0.0000000,0.0000000,0.0000000,0.0076599,0.0000000,0.0000000,0.0020540
27.7829060,1.0005500,,-0.9592536,-0.2823416,0.0037934,0.0099859,0.1080789,0.1026058,-0.1626351,,,,2.1257463,-6.9409504,-21.3701096,0.0000000,0.0000000,0.0000000,0.0200110,0.0581680,0.0000000,0.0000000,0.0077010,0.0000000,0.0000000,0.0000000,0.0581680,0.0000000,0.0000000,0.0077010,0.0000000,0.0000000,0.0000000,0.0581680,0.0000000,0.0000000,0.0077010,0.0077010,0.0000000,0.0000000,0.0020595,0.0000000,0.0000000,0.0000000,0.0077010,0.0000000,0.0000000,0.0020595,0.0000000,0.0000000,0.0000000,0.0077010,0.0000000,0.0000000,0.0020595
27.8040660,1.0496501,,-0.9592614,-0.2823189,0.0039261,0.0098707,0.1254964,0.1182050,0.2503628,,,,2.1257830,-6.9409566,-21.3701649,0.0034895,-0.0005704,-0.0053123,0.0209930,0.0584914,0.0000000,0.0000000,0.0077443,0.0000000,0.0000000,0.0000000,0.0584914,0.0000000,0.0000000,0.0077443,0.0000000,0.0000000,0.0000000,0.0584914,0.0000000,0.0000000,0.0077443,0.0077443,0.0000000,0.0000000,0.0020653,0.0000000,0.0000000,0.0000000,0.0077443,0.0000000,0.0000000,0.0020653,0.0000000,0.0000000,0.0000000,0.0077443,0.0000000,0.0000000,0.0020653
27.8237360,1.0000000,,-0.9592358,-0.2824005,0.0043024,0.0098749,0.1191370,0.1399741,-0.1586245,,,,2.1257830,-6.9409566,-21.3701649,0.0000000,0.0000000,0.0000000,0.0200000,0.0588012,0.0000000,0.0000000,0.0077857,0.0000000,0.0000000,0.0000000,0.0588012,0.0000000,0.0000000,0.0077857,0.0000000,0.0000000,0.0000000,0.0588012,0.0000000,0.0000000,0.0077857,0.0077857,0.0000000,0.0000000,0.0020708,0.0000000,0.0000000,0.0000000,0.0077857,0.0000000,0.0000000,0.0020708,0.0000000,0.0000000,0.0000000,0.0077857,0.0000000,0.0000000,0.0020708
27.8399870,,1.0168500,-0.9592358,-0.2824005,0.0043024,0.0098749,,,,-0.2608130,-0.1505701,0.0011211,2.1188633,-6.9449453,-21.3701344,-0.0009162,-0.0005281,0.0000039,0.1016850,0.0572421,0.0000000,0.0000000,0.0075793,0.0000000,0.0000000,0.0000000,0.0572421,0.0000000,0.0000000,0.0075793,0.0000000,0.0000000,0.0000000,0.0572421,0.0000000,0.0000000,0.0075793,0.0075793,0.0000000,0.0000000,0.0020434,0.0000000,0.0000000,0.0000000,0.0075793,0.0000000,0.0000000,0.0020434,0.0000000,0.0000000,0.0000000,0.0075793,0.0000000,0.0000000,0.0020434
27.8539410,1.0999500,,-0.9592178,-0.2824707,0.0043060,0.0096235,-0.0893344,-0.2442677,0.1823073,,,,2.1187923,-6.9449182,-21.3701763,-0.0055343,0.0029861,-0.0038879,0.0219990,0.0575756,0.0000000,0.0000000,0.0076243,0.0000000,0.0000000,0.0000000,0.0575756,0.0000000,0.0000000,0.0076243,0.0000000,0.0000000,0.0000000,0.0575756,0.0000000,0.0000000,0.0076243,0.0076243,0.0000000,0.0000000,0.0020495,0.0000000,0.0000000,0.0000000,0.0076243,0.0000000,0.0000000,0.0020495,0.0000000,0.0000000,0.0000000,0.0076243,0.0000000,0.0000000,0.0020495
27.8669120,1.0498501,,-0.9592179,-0.2824728,0.0041960,0.0096107,-0.1032686,0.2151388,-0.0078301,,,,2.1187923,-6.9449182,-21.3701763,0.0000000,0.0000000,0.0000000,0.0209970,0.0578958,0.0000000,0.0000000,0.0076674,0.0000000,0.0000000,0.0000000,0.0578958,0.0000000,0.0000000,0.0076674,0.0000000,0.0000000,0.0000000,0.0578958,0.0000000,0.0000000,0.0076674,0.0076674,0.0000000,0.0000000,0.0020552,0.0000000,0.0000000,0.0000000,0.0076674,0.0000000,0.0000000,0.0020552,0.0000000,0.0000000,0.0000000,0.0076674,0.0000000,0.0000000,0.0020552
27.8868940,1.0000000,,-0.9592170,-0.2824593,0.0043246,0.0100271,-0.1381974,0.1408183,-0.1251309,,,,2.1187923,-6.9449182,-21.3701763,0.0000000,0.0000000,0.0000000,0.0200000,0.0582025,0.0000000,0.0000000,0.0077085,0.0000000,0.0000000,0.0000000,0.0582025,0.0000000,0.0000000,0.0077085,0.0000000,0.0000000,0.0000000,0.0582025,0.0000000,0.0000000,0.0077085,0.0077085,0.0000000,0.0000000,0.0020607,0.0000000,0.0000000,0.0000000,0.0077085,0.0000000,0.0000000,0.0020607,0.0000000,0.0000000,0.0000000,0.0077085,0.0000000,0.0000000,0.0020607
27.9069050,1.0000000,,-0.9592413,-0.2823678,0.0043868,0.0102574,-0.0521614,0.1496023,0.1245607,,,,2.1187923,-6.9449182,-21.3701763,0.0000000,0.0000000,0.0000000,0.0200000,0.0585108,0.0000000,0.0000000,0.0077498,0.0000000,0.0000000,0.0000000,0.0585108,0.0000000,0.0000000,0.0077498,0.0000000,0.0000000,0.0000000,0.0585108,0.0000000,0.0000000,0.0077498,0.0077498,0.0000000,0.0000000,0.0020662,0.0000000,0.0000000,0.0000000,0.0077498,0.0000000,0.0000000,0.0020662,0.0000000,0.0000000,0.0000000,0.0077498,0.0000000,0.0000000,0.0020662
27.9269240,1.0008000,,-0.9592479,-0.2823309,0.0045762,0.0105565,-0.0321385,-0.1231511,0.1397797,,,,2.1187923,-6.9449182,-21.3701763,0.0000000,0.0000000,0.0000000,0.0200160,0.0588210,0.0000000,0.0000000,0.0077912,0.0000000,0.0000000,0.0000000,0.0588210,0.0000000,0.0000000,0.0077912,0.0000000,0.0000000,0.0000000,0.0588210,0.0000000,0.0000000,0.0077912,0.0077912,0.0000000,0.0000000,0.0020717,0.0000000,0.0000000,0.0000000,0.0077912,0.0000000,0.0000000,0.0020717,0.0000000,0.0000000,0.0000000,0.0077912,0.0000000,0.0000000,0.0020717
27.9436400,,1.0031400,-0.9592479,-0.2823309,0.0045762,0.0105565,,,,-0.2471347,-0.1589330,0.0008349,2.1122396,-6.9491343,-21.3701534,-0.0008680,-0.0005584,0.0000031,0.1003140,0.0572610,0.0000000,0.0000000,0.0075846,0.0000000,0.0000000,0.0000000,0.0572610,0.0000000,0.0000000,0.0075846,0.0000000,0.0000000,0.0000000,0.0572610,0.0000000,0.0000000,0.0075846,0.0075846,0.0000000,0.0000000,0.0020443,0.0000000,0.0000000,0.0000000,0.0075846,0.0000000,0.0000000,0.0020443,0.0000000,0.0000000,0.0000000,0.0075846,0.0000000,0.0000000,0.0020443
27.9573690,1.0994000,,-0.9592574,-0.2822846,0.0046437,0.0109029,0.0536405,-0.2193743,0.0987976,,,,2.1122396,-6.9491343,-21.3701534,0.0000000,0.0000000,0.0000000,0.0219880,0.0575945,0.0000000,0.0000000,0.0076296,0.0000000,0.0000000,0.0000000,0.0575945,0.0000000,0.0000000,0.0076296,0.0000000,0.0000000,0.0000000,0.0575945,0.0000000,0.0000000,0.0076296,0.0076296,0.0000000,0.0000000,0.0020503,0.0000000,0.0000000,0.0000000,0.0076296,0.0000000,0.0000000,0.0020503,0.0000000,0.0000000,0.0000000,0.0076296,0.0000000,0.0000000,0.0020503
27.9722860,1.0998001,,-0.9592719,-0.2822143,0.0046962,0.0114071,0.1207915,-0.1940835,0.2401566,,,,2.1122379,-6.9490781,-21.3702106,-0.0001590,0.0051284,-0.0051830,0.0219960,0.0579301,0.0000000,0.0000000,0.0076747,0.0000000,0.0000000,0.0000000,0.0579301,0.0000000,0.0000000,0.0076747,0.0000000,0.0000000,0.0000000,0.0579301,0.0000000,0.0000000,0.0076747,0.0076747,0.0000000,0.0000000,0.0020564,0.0000000,0.0000000,0.0000000,0.0076747,0.0000000,0.0000000,0.0020564,0.0000000,0.0000000,0.0000000,0.0076747,0.0000000,0.0000000,0.0020564
27.9918680,1.0500000,,-0.9592878,-0.2821404,0.0048878,0.0118097,0.0835586,0.1138652,0.1045296,,,,2.1122379,-6.9490781,-21.3702106,0.0000000,0.0000000,0.0000000,0.0210000,0.0582525,0.0000000,0.0000000,0.0077180,0.0000000,0.0000000,0.0000000,0.0582525,0.0000000,0.0000000,0.0077180,0.0000000,0.0000000,0.0000000,0.0582525,0.0000000,0.0000000,0.0077180,0.0077180,0.0000000,0.0000000,0.0020621,0.0000000,0.0000000,0.0000000,0.0077180,0.0000000,0.0000000,0.0020621,0.0000000,0.0000000,0.0000000,0.0077180,0.0000000,0.0000000,0.0020621
28.0119760,1.0000000,,-0.9593080,-0.2820701,0.0050733,0.0117754,0.1367805,0.1189977,-0.0130810,,,,2.1122379,-6.9490781,-21.3702106,0.0000000,0.0000000,0.0000000,0.0200000,0.0585612,0.0000000,0.0000000,0.0077593,0.0000000,0.0000000,0.0000000,0.0585612,0.0000000,0.0000000,0.0077593,0.0000000,0.0000000,0.0000000,0.0585612,0.0000000,0.0000000,0.0077593,0.0077593,0.0000000,0.0000000,0.0020676,0.0000000,0.0000000,0.0000000,0.0077593,0.0000000,0.0000000,0.0020676,0.0000000,0.0000000,0.0000000,0.0077593,0.0000000,0.0000000,0.0020676
28.0318670,1.0002999,,-0.9593174,-0.2820324,0.0051533,0.0118788,-0.0036923,0.0229159,-0.0233099,,,,2.1122379,-6.9490781,-21.3702106,0.0000000,0.0000000,0.0000000,0.0200060,0.0588717,0.0000000,0.0000000,0.0078007,0.0000000,0.0000000,0.0000000,0.0588717,0.0000000,0.0000000,0.0078007,0.0000000,0.0000000,0.0000000,0.0588717,0.0000000,0.0000000,0.0078007,0.0078007,0.0000000,0.0000000,0.0020731,0.0000000,0.0000000,0.0000000,0.0078007,0.0000000,0.0000000,0.0020731,0.0000000,0.0000000,0.0000000,0.0078007,0.0000000,0.0000000,0.0020731
28.0486200,,1.0200000,-0.9593174,-0.2820324,0.0051533,0.0118788,,,,-0.2689115,-0.1823316,0.0008353,2.1050997,-6.9539194,-21.3701878,-0.0009458,-0.0006415,0.0000031,0.1020000,0.0573089,0.0000000,0.0000000,0.0075936,0.0000000,0.0000000,0.0000000,0.0573089,0.0000000,0.0000000,0.0075936,0.0000000,0.0000000,0.0000000,0.0573089,0.0000000,0.0000000,0.0075936,0.0075936,0.0000000,0.0000000,0.0020456,0.0000000,0.0000000,0.0000000,0.0075936,0.0000000,0.0000000,0.0020456,0.0000000,0.0000000,0.0000000,0.0075936,0.0000000,0.0000000,0.0020456
28.0623560,1.1002500,,-0.9593139,-0.2820321,0.0053318,0.0120868,-0.0078352,0.0323778,-0.0867816,,,,2.1050997,-6.9539194,-21.3701878,0.0000000,0.0000000,0.0000000,0.0220050,0.0576431,0.0000000,0.0000000,0.0076387,0.0000000,0.0000000,0.0000000,0.0576431,0.0000000,0.0000000,0.0076387,0.0000000,0.0000000,0.0000000,0.0576431,0.0000000,0.0000000,0.0076387,0.0076387,0.0000000,0.0000000,0.0020517,0.0000000,0.0000000,0.0000000,0.0076387,0.0000000,0.0000000,0.0020517,0.0000000,0.0000000,0.0000000,0.0076387,0.0000000,0.0000000,0.0020517
28.0759210,1.0994500,,-0.9593316,-0.2819756,0.0056037,0.0118709,-0.0999488,0.0470956,-0.0413614,,,,2.1050997,-6.9539194,-21.3701878,0.0000000,0.0000000,0.0000000,0.0219890,0.0579791,0.0000000,0.0000000,0.0076839,0.0000000,0.0000000,0.0000000,0.0579791,0.0000000,0.0000000,0.0076839,0.0000000,0.0000000,0.0000000,0.0579791,0.0000000,0.0000000,0.0076839,0.0076839,0.0000000,0.0000000,0.0020577,0.0000000,0.0000000,0.0000000,0.0076839,0.0000000,0.0000000,0.0020577,0.0000000,0.0000000,0.0000000,0.0076839,0.0000000,0.0000000,0.0020577
28.0958670,1.0005500,,-0.9593259,-0.2819785,0.0056668,0.0122297,-0.1271228,0.1505238,-0.1202367,,,,2.1050997,-6.9539194,-21.3701878,0.0000000,0.0000000,0.0000000,0.0200110,0.0582866,0.0000000,0.0000000,0.0077251,0.0000000,0.0000000,0.0000000,0.0582866,0.0000000,0.0000000,0.0077251,0.0000000,0.0000000,0.0000000,0.0582866,0.0000000,0.0000000,0.0077251,0.0077251,0.0000000,0.0000000,0.0020632,0.0000000,0.0000000,0.0000000,0.0077251,0.0000000,0.0000000,0.0020632,0.0000000,0.0000000,0.0000000,0.0077251,0.0000000,0.0000000,0.0020632
28.1169720,1.0495499,,-0.9593325,-0.2819607,0.0057200,0.0121080,-0.0284433,0.0046519,-0.1498934,,,,2.1050997,-6.9539194,-21.3701878,0.0000000,0.0000000,0.0000000,0.0209910,0.0586109,0.0000000,0.0000000,0.0077685,0.0000000,0.0000000,0.0000000,0.0586109,0.0000000,0.0000000,0.0077685,0.0000000,0.0000000,0.0000000,0.0586109,0.0000000,0.0000000,0.0077685,0.0077685,0.0000000,0.0000000,0.0020690,0.0000000,0.0000000,0.0000000,0.0077685,0.0000000,0.0000000,0.0020690,0.0000000,0.0000000,0.0000000,0.0077685,0.0000000,0.0000000,0.0020690
28.1369610,1.0008000,,-0.9593475,-0.2819028,0.0057039,0.0122678,0.0368114,-0.1416179,-0.0360673,,,,2.1050997,-6.9539194,-21.3701878,0.0000000,0.0000000,0.0000000,0.0200160,0.0589219,0.0000000,0.0000000,0.0078099,0.0000000,0.0000000,0.0000000,0.0589219,0.0000000,0.0000000,0.0078099,0.0000000,0.0000000,0.0000000,0.0589219,0.0000000,0.0000000,0.0078099,0.0078099,0.0000000,0.0000000,0.0020744,0.0000000,0.0000000,0.0000000,0.0078099,0.0000000,0.0000000,0.0020744,0.0000000,0.0000000,0.0000000,0.0078099,0.0000000,0.0000000,0.0020744
28.1537190,,1.0200000,-0.9593475,-0.2819028,0.0057039,0.0122678,,,,-0.2801390,-0.1804024,0.0013377,2.0976572,-6.9587121,-21.3701515,-0.0009865,-0.0006353,0.0000047,0.1020000,0.0573565,0.0000000,0.0000000,0.0076024,0.0000000,0.0000000,0.0000000,0.0573565,0.0000000,0.0000000,0.0076024,0.0000000,0.0000000,0.0000000,0.0573565,0.0000000,0.0000000,0.0076024,0.0076024,0.0000000,0.0000000,0.0020469,0.0000000,0.0000000,0.0000000,0.0076024,0.0000000,0.0000000,0.0020469,0.0000000,0.0000000,0.0000000,0.0076024,0.0000000,0.0000000,0.0020469
