t,predict_cpu,update_cpu,quat_x,quat_y,quat_z,quat_w,accel_x,accel_y,accel_z,of_x,of_y,of_z,x_x,x_y,x_z,x_vx,x_vy,x_vz,dt,P_0,P_1,P_2,P_3,P_4,P_5,P_6,P_7,P_8,P_9,P_10,P_11,P_12,P_13,P_14,P_15,P_16,P_17,P_18,P_19,P_20,P_21,P_22,P_23,P_24,P_25,P_26,P_27,P_28,P_29,P_30,P_31,P_32,P_33,P_34,P_35
55.7037050,1.0007000,,-0.9595232,-0.2816180,0.0000908,0.0025655,-0.0037948,0.0087986,0.0007342,,,,2.1591840,-6.9269910,-21.3697929,0.0000000,0.0000000,0.0000000,0.0200140,0.0585233,0.0000000,0.0000000,0.0077964,0.0000000,0.0000000,0.0000000,0.0585233,0.0000000,0.0000000,0.0077964,0.0000000,0.0000000,0.0000000,0.0585233,0.0000000,0.0000000,0.0077964,0.0077964,0.0000000,0.0000000,0.0020644,0.0000000,0.0000000,0.0000000,0.0077964,0.0000000,0.0000000,0.0020644,0.0000000,0.0000000,0.0000000,0.0077964,0.0000000,0.0000000,0.0020644
55.7236580,0.9993500,,-0.9595233,-0.2816179,0.0001341,0.0025429,-0.0046287,0.0073595,-0.0003653,,,,2.1591840,-6.9269910,-21.3697929,0.0000000,0.0000000,0.0000000,0.0199870,0.0588350,0.0000000,0.0000000,0.0078378,0.0000000,0.0000000,0.0000000,0.0588350,0.0000000,0.0000000,0.0078378,0.0000000,0.0000000,0.0000000,0.0588350,0.0000000,0.0000000,0.0078378,0.0078378,0.0000000,0.0000000,0.0020699,0.0000000,0.0000000,0.0000000,0.0078378,0.0000000,0.0000000,0.0020699,0.0000000,0.0000000,0.0000000,0.0078378,0.0000000,0.0000000,0.0020699
55.7396270,,1.0161600,-0.9595233,-0.2816179,0.0001341,0.0025429,,,,0.0000000,0.0000000,0.0000000,2.1591840,-6.9269910,-21.3697929,0.0000000,0.0000000,0.0000000,0.1016160,0.0572741,0.0000000,0.0000000,0.0076298,0.0000000,0.0000000,0.0000000,0.0572741,0.0000000,0.0000000,0.0076298,0.0000000,0.0000000,0.0000000,0.0572741,0.0000000,0.0000000,0.0076298,0.0076298,0.0000000,0.0000000,0.0020422,0.0000000,0.0000000,0.0000000,0.0076298,0.0000000,0.0000000,0.0020422,0.0000000,0.0000000,0.0000000,0.0076298,0.0000000,0.0000000,0.0020422
55.7521160,1.1000500,,-0.9595233,-0.2816178,0.0001667,0.0025383,-0.0011242,0.0044656,0.0032353,,,,2.1591840,-6.9269910,-21.3697929,0.0000000,0.0000000,0.0000000,0.0220010,0.0576099,0.0000000,0.0000000,0.0076748,0.0000000,0.0000000,0.0000000,0.0576099,0.0000000,0.0000000,0.0076748,0.0000000,0.0000000,0.0000000,0.0576099,0.0000000,0.0000000,0.0076748,0.0076748,0.0000000,0.0000000,0.0020482,0.0000000,0.0000000,0.0000000,0.0076748,0.0000000,0.0000000,0.0020482,0.0000000,0.0000000,0.0000000,0.0076748,0.0000000,0.0000000,0.0020482
55.7669200,1.0503500,,-0.9595233,-0.2816178,0.0001847,0.0025293,-0.0022940,0.0032475,0.0008852,,,,2.1591840,-6.9269910,-21.3697929,0.0000000,0.0000000,0.0000000,0.0210070,0.0579323,0.0000000,0.0000000,0.0077179,0.0000000,0.0000000,0.0000000,0.0579323,0.0000000,0.0000000,0.0077179,0.0000000,0.0000000,0.0000000,0.0579323,0.0000000,0.0000000,0.0077179,0.0077179,0.0000000,0.0000000,0.0020540,0.0000000,0.0000000,0.0000000,0.0077179,0.0000000,0.0000000,0.0020540,0.0000000,0.0000000,0.0000000,0.0077179,0.0000000,0.0000000,0.0020540
55.7869290,1.0000000,,-0.9595233,-0.2816178,0.0001929,0.0025424,0.0022328,-0.0051435,-0.0032195,,,,2.1591840,-6.9269910,-21.3697929,0.0000000,0.0000000,0.0000000,0.0200000,0.0582410,0.0000000,0.0000000,0.0077590,0.0000000,0.0000000,0.0000000,0.0582410,0.0000000,0.0000000,0.0077590,0.0000000,0.0000000,0.0000000,0.0582410,0.0000000,0.0000000,0.0077590,0.0077590,0.0000000,0.0000000,0.0020595,0.0000000,0.0000000,0.0000000,0.0077590,0.0000000,0.0000000,0.0020595,0.0000000,0.0000000,0.0000000,0.0077590,0.0000000,0.0000000,0.0020595
55.8067070,0.9998000,,-0.9595233,-0.2816178,0.0001800,0.0025472,0.0073954,-0.0005576,0.0008317,,,,2.1591840,-6.9269910,-21.3697929,0.0000000,0.0000000,0.0000000,0.0199960,0.0585513,0.0000000,0.0000000,0.0078003,0.0000000,0.0000000,0.0000000,0.0585513,0.0000000,0.0000000,0.0078003,0.0000000,0.0000000,0.0000000,0.0585513,0.0000000,0.0000000,0.0078003,0.0078003,0.0000000,0.0000000,0.0020650,0.0000000,0.0000000,0.0000000,0.0078003,0.0000000,0.0000000,0.0020650,0.0000000,0.0000000,0.0000000,0.0078003,0.0000000,0.0000000,0.0020650
55.8266970,0.9999000,,-0.9595233,-0.2816178,0.0001859,0.0025577,-0.0002543,-0.0019039,-0.0039787,,,,2.1591840,-6.9269910,-21.3697929,0.0000000,0.0000000,0.0000000,0.0199980,0.0588633,0.0000000,0.0000000,0.0078416,0.0000000,0.0000000,0.0000000,0.0588633,0.0000000,0.0000000,0.0078416,0.0000000,0.0000000,0.0000000,0.0588633,0.0000000,0.0000000,0.0078416,0.0078416,0.0000000,0.0000000,0.0020704,0.0000000,0.0000000,0.0000000,0.0078416,0.0000000,0.0000000,0.0020704,0.0000000,0.0000000,0.0000000,0.0078416,0.0000000,0.0000000,0.0020704
55.8421360,,1.0238500,-0.9595233,-0.2816178,0.0001859,0.0025577,,,,0.0000000,0.0000000,0.0000000,2.1591840,-6.9269910,-21.3697929,0.0000000,0.0000000,0.0000000,0.1023850,0.0573010,0.0000000,0.0000000,0.0076335,0.0000000,0.0000000,0.0000000,0.0573010,0.0000000,0.0000000,0.0076335,0.0000000,0.0000000,0.0000000,0.0573010,0.0000000,0.0000000,0.0076335,0.0076335,0.0000000,0.0000000,0.0020427,0.0000000,0.0000000,0.0000000,0.0076335,0.0000000,0.0000000,0.0020427,0.0000000,0.0000000,0.0000000,0.0076335,0.0000000,0.0000000,0.0020427
55.8566340,1.1005000,,-0.9595232,-0.2816178,0.0001901,0.0025743,-0.0011571,-0.0030424,0.0006962,,,,2.1591840,-6.9269910,-21.3697929,0.0000000,0.0000000,0.0000000,0.0220100,0.0576371,0.0000000,0.0000000,0.0076785,0.0000000,0.0000000,0.0000000,0.0576371,0.0000000,0.0000000,0.0076785,0.0000000,0.0000000,0.0000000,0.0576371,0.0000000,0.0000000,0.0076785,0.0076785,0.0000000,0.0000000,0.0020488,0.0000000,0.0000000,0.0000000,0.0076785,0.0000000,0.0000000,0.0020488,0.0000000,0.0000000,0.0000000,0.0076785,0.0000000,0.0000000,0.0020488
55.8699710,1.0493500,,-0.9595232,-0.2816178,0.0002057,0.0025648,0.0013593,0.0017289,-0.0055113,,,,2.1591840,-6.9269910,-21.3697929,0.0000000,0.0000000,0.0000000,0.0209870,0.0579594,0.0000000,0.0000000,0.0077216,0.0000000,0.0000000,0.0000000,0.0579594,0.0000000,0.0000000,0.0077216,0.0000000,0.0000000,0.0000000,0.0579594,0.0000000,0.0000000,0.0077216,0.0077216,0.0000000,0.0000000,0.0020545,0.0000000,0.0000000,0.0000000,0.0077216,0.0000000,0.0000000,0.0020545,0.0000000,0.0000000,0.0000000,0.0077216,0.0000000,0.0000000,0.0020545
55.8899390,1.0002999,,-0.9595233,-0.2816177,0.0002430,0.0025440,-0.0109857,-0.0010276,-0.0056853,,,,2.1591840,-6.9269910,-21.3697929,0.0000000,0.0000000,0.0000000,0.0200060,0.0582683,0.0000000,0.0000000,0.0077627,0.0000000,0.0000000,0.0000000,0.0582683,0.0000000,0.0000000,0.0077627,0.0000000,0.0000000,0.0000000,0.0582683,0.0000000,0.0000000,0.0077627,0.0077627,0.0000000,0.0000000,0.0020600,0.0000000,0.0000000,0.0000000,0.0077627,0.0000000,0.0000000,0.0020600,0.0000000,0.0000000,0.0000000,0.0077627,0.0000000,0.0000000,0.0020600
55.9107580,1.0497000,,-0.9595233,-0.2816177,0.0002396,0.0025438,-0.0010983,-0.0038631,-0.0011337,,,,2.1591840,-6.9269910,-21.3697929,0.0000000,0.0000000,0.0000000,0.0209940,0.0585943,0.0000000,0.0000000,0.0078060,0.0000000,0.0000000,0.0000000,0.0585943,0.0000000,0.0000000,0.0078060,0.0000000,0.0000000,0.0000000,0.0585943,0.0000000,0.0000000,0.0078060,0.0078060,0.0000000,0.0000000,0.0020658,0.0000000,0.0000000,0.0000000,0.0078060,0.0000000,0.0000000,0.0020658,0.0000000,0.0000000,0.0000000,0.0078060,0.0000000,0.0000000,0.0020658
55.9320020,1.0508000,,-0.9595233,-0.2816177,0.0002395,0.0025421,0.0018999,-0.0030836,-0.0047172,,,,2.1591840,-6.9269910,-21.3697929,0.0000000,0.0000000,0.0000000,0.0210160,0.0589224,0.0000000,0.0000000,0.0078495,0.0000000,0.0000000,0.0000000,0.0589224,0.0000000,0.0000000,0.0078495,0.0000000,0.0000000,0.0000000,0.0589224,0.0000000,0.0000000,0.0078495,0.0078495,0.0000000,0.0000000,0.0020715,0.0000000,0.0000000,0.0000000,0.0078495,0.0000000,0.0000000,0.0020715,0.0000000,0.0000000,0.0000000,0.0078495,0.0000000,0.0000000,0.0020715
55.9479280,,1.0000100,-0.9595233,-0.2816177,0.0002395,0.0025421,,,,0.0000000,0.0000000,0.0000000,2.1591840,-6.9269910,-21.3697929,0.0000000,0.0000000,0.0000000,0.1000010,0.0573570,0.0000000,0.0000000,0.0076410,0.0000000,0.0000000,0.0000000,0.0573570,0.0000000,0.0000000,0.0076410,0.0000000,0.0000000,0.0000000,0.0573570,0.0000000,0.0000000,0.0076410,0.0076410,0.0000000,0.0000000,0.0020437,0.0000000,0.0000000,0.0000000,0.0076410,0.0000000,0.0000000,0.0020437,0.0000000,0.0000000,0.0000000,0.0076410,0.0000000,0.0000000,0.0020437
55.9617630,1.0998499,,-0.9595233,-0.2816177,0.0002376,0.0025611,0.0036279,0.0014947,-0.0045559,,,,2.1591840,-6.9269910,-21.3697929,0.0000000,0.0000000,0.0000000,0.0219970,0.0576931,0.0000000,0.0000000,0.0076860,0.0000000,0.0000000,0.0000000,0.0576931,0.0000000,0.0000000,0.0076860,0.0000000,0.0000000,0.0000000,0.0576931,0.0000000,0.0000000,0.0076860,0.0076860,0.0000000,0.0000000,0.0020498,0.0000000,0.0000000,0.0000000,0.0076860,0.0000000,0.0000000,0.0020498,0.0000000,0.0000000,0.0000000,0.0076860,0.0000000,0.0000000,0.0020498
55.9747310,1.0499500,,-0.9595232,-0.2816178,0.0002046,0.0025727,-0.0021610,-0.0035556,-0.0010572,,,,2.1591840,-6.9269910,-21.3697929,0.0000000,0.0000000,0.0000000,0.0209990,0.0580159,0.0000000,0.0000000,0.0077291,0.0000000,0.0000000,0.0000000,0.0580159,0.0000000,0.0000000,0.0077291,0.0000000,0.0000000,0.0000000,0.0580159,0.0000000,0.0000000,0.0077291,0.0077291,0.0000000,0.0000000,0.0020555,0.0000000,0.0000000,0.0000000,0.0077291,0.0000000,0.0000000,0.0020555,0.0000000,0.0000000,0.0000000,0.0077291,0.0000000,0.0000000,0.0020555
55.9955260,1.0495000,,-0.9595232,-0.2816178,0.0001798,0.0025739,-0.0001879,-0.0024339,-0.0029700,,,,2.1591840,-6.9269910,-21.3697929,0.0000000,0.0000000,0.0000000,0.0209900,0.0583404,0.0000000,0.0000000,0.0077723,0.0000000,0.0000000,0.0000000,0.0583404,0.0000000,0.0000000,0.0077723,0.0000000,0.0000000,0.0000000,0.0583404,0.0000000,0.0000000,0.0077723,0.0077723,0.0000000,0.0000000,0.0020613,0.0000000,0.0000000,0.0000000,0.0077723,0.0000000,0.0000000,0.0020613,0.0000000,0.0000000,0.0000000,0.0077723,0.0000000,0.0000000,0.0020613
56.0168710,1.0500000,,-0.9595232,-0.2816179,0.0001557,0.0025791,0.0000434,-0.0008965,0.0014447,,,,2.1591840,-6.9269910,-21.3697929,0.0000000,0.0000000,0.0000000,0.0210000,0.0586668,0.0000000,0.0000000,0.0078156,0.0000000,0.0000000,0.0000000,0.0586668,0.0000000,0.0000000,0.0078156,0.0000000,0.0000000,0.0000000,0.0586668,0.0000000,0.0000000,0.0078156,0.0078156,0.0000000,0.0000000,0.0020670,0.0000000,0.0000000,0.0000000,0.0078156,0.0000000,0.0000000,0.0020670,0.0000000,0.0000000,0.0000000,0.0078156,0.0000000,0.0000000,0.0020670
56.0377950,1.0503000,,-0.9595232,-0.2816179,0.0001586,0.0025706,0.0018985,0.0030384,-0.0058695,,,,2.1591840,-6.9269910,-21.3697929,0.0000000,0.0000000,0.0000000,0.0210060,0.0589952,0.0000000,0.0000000,0.0078591,0.0000000,0.0000000,0.0000000,0.0589952,0.0000000,0.0000000,0.0078591,0.0000000,0.0000000,0.0000000,0.0589952,0.0000000,0.0000000,0.0078591,0.0078591,0.0000000,0.0000000,0.0020728,0.0000000,0.0000000,0.0000000,0.0078591,0.0000000,0.0000000,0.0020728,0.0000000,0.0000000,0.0000000,0.0078591,0.0000000,0.0000000,0.0020728
56.0535780,,1.0000401,-0.9595232,-0.2816179,0.0001586,0.0025706,,,,0.0000000,0.0000000,0.0000000,2.1591840,-6.9269910,-21.3697929,0.0000000,0.0000000,0.0000000,0.1000040,0.0574260,0.0000000,0.0000000,0.0076501,0.0000000,0.0000000,0.0000000,0.0574260,0.0000000,0.0000000,0.0076501,0.0000000,0.0000000,0.0000000,0.0574260,0.0000000,0.0000000,0.0076501,0.0076501,0.0000000,0.0000000,0.0020449,0.0000000,0.0000000,0.0000000,0.0076501,0.0000000,0.0000000,0.0020449,0.0000000,0.0000000,0.0000000,0.0076501,0.0000000,0.0000000,0.0020449
56.0675940,0.9996000,,-0.9595232,-0.2816179,0.0001313,0.0025681,0.0044817,0.0015726,-0.0039113,,,,2.1591840,-6.9269910,-21.3697929,0.0000000,0.0000000,0.0000000,0.0199920,0.0577319,0.0000000,0.0000000,0.0076910,0.0000000,0.0000000,0.0000000,0.0577319,0.0000000,0.0000000,0.0076910,0.0000000,0.0000000,0.0000000,0.0577319,0.0000000,0.0000000,0.0076910,0.0076910,0.0000000,0.0000000,0.0020504,0.0000000,0.0000000,0.0000000,0.0076910,0.0000000,0.0000000,0.0020504,0.0000000,0.0000000,0.0000000,0.0076910,0.0000000,0.0000000,0.0020504
56.0808050,1.1500000,,-0.9595232,-0.2816180,0.0001198,0.0025594,0.0055367,-0.0038142,0.0041479,,,,2.1591840,-6.9269910,-21.3697929,0.0000000,0.0000000,0.0000000,0.0230000,0.0580856,0.0000000,0.0000000,0.0077382,0.0000000,0.0000000,0.0000000,0.0580856,0.0000000,0.0000000,0.0077382,0.0000000,0.0000000,0.0000000,0.0580856,0.0000000,0.0000000,0.0077382,0.0077382,0.0000000,0.0000000,0.0020567,0.0000000,0.0000000,0.0000000,0.0077382,0.0000000,0.0000000,0.0020567,0.0000000,0.0000000,0.0000000,0.0077382,0.0000000,0.0000000,0.0020567
56.1018290,1.0509000,,-0.9595232,-0.2816180,0.0001253,0.0025509,-0.0005046,0.0008166,0.0028064,,,,2.1591840,-6.9269910,-21.3697929,0.0000000,0.0000000,0.0000000,0.0210180,0.0584109,0.0000000,0.0000000,0.0077815,0.0000000,0.0000000,0.0000000,0.0584109,0.0000000,0.0000000,0.0077815,0.0000000,0.0000000,0.0000000,0.0584109,0.0000000,0.0000000,0.0077815,0.0077815,0.0000000,0.0000000,0.0020625,0.0000000,0.0000000,0.0000000,0.0077815,0.0000000,0.0000000,0.0020625,0.0000000,0.0000000,0.0000000,0.0077815,0.0000000,0.0000000,0.0020625
56.1219220,0.9994000,,-0.9595232,-0.2816180,0.0001172,0.0025613,0.0005945,-0.0039252,0.0001825,,,,2.1591840,-6.9269910,-21.3697929,0.0000000,0.0000000,0.0000000,0.0199880,0.0587220,0.0000000,0.0000000,0.0078228,0.0000000,0.0000000,0.0000000,0.0587220,0.0000000,0.0000000,0.0078228,0.0000000,0.0000000,0.0000000,0.0587220,0.0000000,0.0000000,0.0078228,0.0078228,0.0000000,0.0000000,0.0020680,0.0000000,0.0000000,0.0000000,0.0078228,0.0000000,0.0000000,0.0020680,0.0000000,0.0000000,0.0000000,0.0078228,0.0000000,0.0000000,0.0020680
56.1422490,,0.9999300,-0.9595232,-0.2816180,0.0001262,0.0025731,,,,0.0000000,0.0000000,0.0000000,2.1591840,-6.9269910,-21.3697929,0.0000000,0.0000000,0.0000000,0.0999930,0.0571671,0.0000000,0.0000000,0.0076157,0.0000000,0.0000000,0.0000000,0.0571671,0.0000000,0.0000000,0.0076157,0.0000000,0.0000000,0.0000000,0.0571671,0.0000000,0.0000000,0.0076157,0.0076157,0.0000000,0.0000000,0.0020404,0.0000000,0.0000000,0.0000000,0.0076157,0.0000000,0.0000000,0.0020404,0.0000000,0.0000000,0.0000000,0.0076157,0.0000000,0.0000000,0.0020404
56.1557570,1.0002999,,-0.9595232,-0.2816180,0.0001262,0.0025731,-0.0012744,-0.0026111,-0.0011295,,,,2.1591840,-6.9269910,-21.3697929,0.0000000,0.0000000,0.0000000,0.0200060,0.0574718,0.0000000,0.0000000,0.0076565,0.0000000,0.0000000,0.0000000,0.0574718,0.0000000,0.0000000,0.0076565,0.0000000,0.0000000,0.0000000,0.0574718,0.0000000,0.0000000,0.0076565,0.0076565,0.0000000,0.0000000,0.0020459,0.0000000,0.0000000,0.0000000,0.0076565,0.0000000,0.0000000,0.0020459,0.0000000,0.0000000,0.0000000,0.0076565,0.0000000,0.0000000,0.0020459
56.1686850,1.3494000,,-0.9595231,-0.2816180,0.0001101,0.0025805,-0.0022470,0.0004721,-0.0056917,,,,2.1591840,-6.9269910,-21.3697929,0.0000000,0.0000000,0.0000000,0.0269880,0.0578851,0.0000000,0.0000000,0.0077118,0.0000000,0.0000000,0.0000000,0.0578851,0.0000000,0.0000000,0.0077118,0.0000000,0.0000000,0.0000000,0.0578851,0.0000000,0.0000000,0.0077118,0.0077118,0.0000000,0.0000000,0.0020533,0.0000000,0.0000000,0.0000000,0.0077118,0.0000000,0.0000000,0.0020533,0.0000000,0.0000000,0.0000000,0.0077118,0.0000000,0.0000000,0.0020533
56.1902620,1.0000000,,-0.9595231,-0.2816180,0.0001063,0.0026066,0.0018977,-0.0008702,-0.0030900,,,,2.1591840,-6.9269910,-21.3697929,0.0000000,0.0000000,0.0000000,0.0200000,0.0581936,0.0000000,0.0000000,0.0077529,0.0000000,0.0000000,0.0000000,0.0581936,0.0000000,0.0000000,0.0077529,0.0000000,0.0000000,0.0000000,0.0581936,0.0000000,0.0000000,0.0077529,0.0077529,0.0000000,0.0000000,0.0020588,0.0000000,0.0000000,0.0000000,0.0077529,0.0000000,0.0000000,0.0020588,0.0000000,0.0000000,0.0000000,0.0077529,0.0000000,0.0000000,0.0020588
56.2088780,1.0000000,,-0.9595230,-0.2816180,0.0001126,0.0026241,-0.0004092,-0.0025027,-0.0030098,,,,2.1591840,-6.9269910,-21.3697929,0.0000000,0.0000000,0.0000000,0.0200000,0.0585037,0.0000000,0.0000000,0.0077942,0.0000000,0.0000000,0.0000000,0.0585037,0.0000000,0.0000000,0.0077942,0.0000000,0.0000000,0.0000000,0.0585037,0.0000000,0.0000000,0.0077942,0.0077942,0.0000000,0.0000000,0.0020642,0.0000000,0.0000000,0.0000000,0.0077942,0.0000000,0.0000000,0.0020642,0.0000000,0.0000000,0.0000000,0.0077942,0.0000000,0.0000000,0.0020642
56.2288270,1.0006500,,-0.9595230,-0.2816179,0.0001296,0.0026304,0.0011535,-0.0052644,-0.0078526,,,,2.1591840,-6.9269910,-21.3697929,0.0000000,0.0000000,0.0000000,0.0200130,0.0588157,0.0000000,0.0000000,0.0078355,0.0000000,0.0000000,0.0000000,0.0588157,0.0000000,0.0000000,0.0078355,0.0000000,0.0000000,0.0000000,0.0588157,0.0000000,0.0000000,0.0078355,0.0078355,0.0000000,0.0000000,0.0020697,0.0000000,0.0000000,0.0000000,0.0078355,0.0000000,0.0000000,0.0020697,0.0000000,0.0000000,0.0000000,0.0078355,0.0000000,0.0000000,0.0020697
56.2438100,,1.0000199,-0.9595230,-0.2816179,0.0001296,0.0026304,,,,0.0000000,0.0000000,0.0000000,2.1591840,-6.9269910,-21.3697929,0.0000000,0.0000000,0.0000000,0.1000020,0.0572558,0.0000000,0.0000000,0.0076277,0.0000000,0.0000000,0.0000000,0.0572558,0.0000000,0.0000000,0.0076277,0.0000000,0.0000000,0.0000000,0.0572558,0.0000000,0.0000000,0.0076277,0.0076277,0.0000000,0.0000000,0.0020420,0.0000000,0.0000000,0.0000000,0.0076277,0.0000000,0.0000000,0.0020420,0.0000000,0.0000000,0.0000000,0.0076277,0.0000000,0.0000000,0.0020420
56.2574680,0.9994000,,-0.9595230,-0.2816179,0.0001274,0.0026417,-0.0024903,0.0055694,-0.0051470,,,,2.1591840,-6.9269910,-21.3697929,0.0000000,0.0000000,0.0000000,0.0199880,0.0575608,0.0000000,0.0000000,0.0076686,0.0000000,0.0000000,0.0000000,0.0575608,0.0000000,0.0000000,0.0076686,0.0000000,0.0000000,0.0000000,0.0575608,0.0000000,0.0000000,0.0076686,0.0076686,0.0000000,0.0000000,0.0020475,0.0000000,0.0000000,0.0000000,0.0076686,0.0000000,0.0000000,0.0020475,0.0000000,0.0000000,0.0000000,0.0076686,0.0000000,0.0000000,0.0020475
56.2706940,1.0999500,,-0.9595230,-0.2816179,0.0001270,0.0026245,-0.0057617,0.0065460,0.0018210,,,,2.1591840,-6.9269910,-21.3697929,0.0000000,0.0000000,0.0000000,0.0219990,0.0578982,0.0000000,0.0000000,0.0077137,0.0000000,0.0000000,0.0000000,0.0578982,0.0000000,0.0000000,0.0077137,0.0000000,0.0000000,0.0000000,0.0578982,0.0000000,0.0000000,0.0077137,0.0077137,0.0000000,0.0000000,0.0020536,0.0000000,0.0000000,0.0000000,0.0077137,0.0000000,0.0000000,0.0020536,0.0000000,0.0000000,0.0000000,0.0077137,0.0000000,0.0000000,0.0020536
56.2909630,1.0001000,,-0.9595231,-0.2816179,0.0001299,0.0026035,-0.0037201,0.0101852,0.0016429,,,,2.1591840,-6.9269910,-21.3697929,0.0000000,0.0000000,0.0000000,0.0200020,0.0582068,0.0000000,0.0000000,0.0077548,0.0000000,0.0000000,0.0000000,0.0582068,0.0000000,0.0000000,0.0077548,0.0000000,0.0000000,0.0000000,0.0582068,0.0000000,0.0000000,0.0077548,0.0077548,0.0000000,0.0000000,0.0020590,0.0000000,0.0000000,0.0000000,0.0077548,0.0000000,0.0000000,0.0020590,0.0000000,0.0000000,0.0000000,0.0077548,0.0000000,0.0000000,0.0020590
56.3121990,0.9999000,,-0.9595231,-0.2816179,0.0001358,0.0025939,-0.0012268,0.0088386,0.0027746,,,,2.1591840,-6.9269910,-21.3697929,0.0000000,0.0000000,0.0000000,0.0199980,0.0585169,0.0000000,0.0000000,0.0077961,0.0000000,0.0000000,0.0000000,0.0585169,0.0000000,0.0000000,0.0077961,0.0000000,0.0000000,0.0000000,0.0585169,0.0000000,0.0000000,0.0077961,0.0077961,0.0000000,0.0000000,0.0020645,0.0000000,0.0000000,0.0000000,0.0077961,0.0000000,0.0000000,0.0020645,0.0000000,0.0000000,0.0000000,0.0077961,0.0000000,0.0000000,0.0020645
56.3309550,1.0000000,,-0.9595231,-0.2816180,0.0001295,0.0025901,0.0000046,0.0113316,-0.0078900,,,,2.1591840,-6.9269910,-21.3697929,0.0000000,0.0000000,0.0000000,0.0200000,0.0588288,0.0000000,0.0000000,0.0078374,0.0000000,0.0000000,0.0000000,0.0588288,0.0000000,0.0000000,0.0078374,0.0000000,0.0000000,0.0000000,0.0588288,0.0000000,0.0000000,0.0078374,0.0078374,0.0000000,0.0000000,0.0020700,0.0000000,0.0000000,0.0000000,0.0078374,0.0000000,0.0000000,0.0020700,0.0000000,0.0000000,0.0000000,0.0078374,0.0000000,0.0000000,0.0020700
56.3468100,,1.0000100,-0.9595231,-0.2816180,0.0001295,0.0025901,,,,0.0000000,0.0000000,0.0000000,2.1591840,-6.9269910,-21.3697929,0.0000000,0.0000000,0.0000000,0.1000010,0.0572683,0.0000000,0.0000000,0.0076295,0.0000000,0.0000000,0.0000000,0.0572683,0.0000000,0.0000000,0.0076295,0.0000000,0.0000000,0.0000000,0.0572683,0.0000000,0.0000000,0.0076295,0.0076295,0.0000000,0.0000000,0.0020423,0.0000000,0.0000000,0.0000000,0.0076295,0.0000000,0.0000000,0.0020423,0.0000000,0.0000000,0.0000000,0.0076295,0.0000000,0.0000000,0.0020423
56.3601890,1.0005500,,-0.9595231,-0.2816179,0.0001414,0.0025908,0.0033287,0.0101519,-0.0017478,,,,2.1591840,-6.9269910,-21.3697929,0.0000000,0.0000000,0.0000000,0.0200110,0.0575736,0.0000000,0.0000000,0.0076705,0.0000000,0.0000000,0.0000000,0.0575736,0.0000000,0.0000000,0.0076705,0.0000000,0.0000000,0.0000000,0.0575736,0.0000000,0.0000000,0.0076705,0.0076705,0.0000000,0.0000000,0.0020478,0.0000000,0.0000000,0.0000000,0.0076705,0.0000000,0.0000000,0.0020478,0.0000000,0.0000000,0.0000000,0.0076705,0.0000000,0.0000000,0.0020478
56.3739350,1.1495500,,-0.9595231,-0.2816179,0.0001496,0.0026074,0.0049831,0.0039773,-0.0057567,,,,2.1591840,-6.9269910,-21.3697929,0.0000000,0.0000000,0.0000000,0.0229910,0.0579263,0.0000000,0.0000000,0.0077176,0.0000000,0.0000000,0.0000000,0.0579263,0.0000000,0.0000000,0.0077176,0.0000000,0.0000000,0.0000000,0.0579263,0.0000000,0.0000000,0.0077176,0.0077176,0.0000000,0.0000000,0.0020541,0.0000000,0.0000000,0.0000000,0.0077176,0.0000000,0.0000000,0.0020541,0.0000000,0.0000000,0.0000000,0.0077176,0.0000000,0.0000000,0.0020541
56.3948960,1.0500000,,-0.9595230,-0.2816179,0.0001385,0.0026243,0.0030943,0.0055363,-0.0023901,,,,2.1591840,-6.9269910,-21.3697929,0.0000000,0.0000000,0.0000000,0.0210000,0.0582505,0.0000000,0.0000000,0.0077608,0.0000000,0.0000000,0.0000000,0.0582505,0.0000000,0.0000000,0.0077608,0.0000000,0.0000000,0.0000000,0.0582505,0.0000000,0.0000000,0.0077608,0.0077608,0.0000000,0.0000000,0.0020599,0.0000000,0.0000000,0.0000000,0.0077608,0.0000000,0.0000000,0.0020599,0.0000000,0.0000000,0.0000000,0.0077608,0.0000000,0.0000000,0.0020599
56.4149240,1.0004500,,-0.9595230,-0.2816179,0.0001487,0.0026418,0.0036376,-0.0002455,-0.0043689,,,,2.1591840,-6.9269910,-21.3697929,0.0000000,0.0000000,0.0000000,0.0200090,0.0585610,0.0000000,0.0000000,0.0078021,0.0000000,0.0000000,0.0000000,0.0585610,0.0000000,0.0000000,0.0078021,0.0000000,0.0000000,0.0000000,0.0585610,0.0000000,0.0000000,0.0078021,0.0078021,0.0000000,0.0000000,0.0020653,0.0000000,0.0000000,0.0000000,0.0078021,0.0000000,0.0000000,0.0020653,0.0000000,0.0000000,0.0000000,0.0078021,0.0000000,0.0000000,0.0020653
56.4349050,0.9995500,,-0.9595230,-0.2816178,0.0001815,0.0026500,-0.0001877,0.0000527,0.0061164,,,,2.1591840,-6.9269910,-21.3697929,0.0000000,0.0000000,0.0000000,0.0199910,0.0588730,0.0000000,0.0000000,0.0078434,0.0000000,0.0000000,0.0000000,0.0588730,0.0000000,0.0000000,0.0078434,0.0000000,0.0000000,0.0000000,0.0588730,0.0000000,0.0000000,0.0078434,0.0078434,0.0000000,0.0000000,0.0020708,0.0000000,0.0000000,0.0000000,0.0078434,0.0000000,0.0000000,0.0020708,0.0000000,0.0000000,0.0000000,0.0078434,0.0000000,0.0000000,0.0020708
56.4507490,,1.0199900,-0.9595230,-0.2816178,0.0001815,0.0026500,,,,0.0000000,0.0000000,0.0000000,2.1591840,-6.9269910,-21.3697929,0.0000000,0.0000000,0.0000000,0.1019990,0.0573102,0.0000000,0.0000000,0.0076352,0.0000000,0.0000000,0.0000000,0.0573102,0.0000000,0.0000000,0.0076352,0.0000000,0.0000000,0.0000000,0.0573102,0.0000000,0.0000000,0.0076352,0.0076352,0.0000000,0.0000000,0.0020431,0.0000000,0.0000000,0.0000000,0.0076352,0.0000000,0.0000000,0.0020431,0.0000000,0.0000000,0.0000000,0.0076352,0.0000000,0.0000000,0.0020431
56.4631050,1.0005500,,-0.9595228,-0.2816178,0.0002035,0.0026951,0.0039955,-0.0068019,0.0054996,,,,2.1591840,-6.9269910,-21.3697929,0.0000000,0.0000000,0.0000000,0.0200110,0.0576158,0.0000000,0.0000000,0.0076761,0.0000000,0.0000000,0.0000000,0.0576158,0.0000000,0.0000000,0.0076761,0.0000000,0.0000000,0.0000000,0.0576158,0.0000000,0.0000000,0.0076761,0.0076761,0.0000000,0.0000000,0.0020486,0.0000000,0.0000000,0.0000000,0.0076761,0.0000000,0.0000000,0.0020486,0.0000000,0.0000000,0.0000000,0.0076761,0.0000000,0.0000000,0.0020486
56.4777640,1.1493500,,-0.9595228,-0.2816178,0.0001856,0.0027080,0.0040806,0.0012148,0.0078767,,,,2.1591840,-6.9269910,-21.3697929,0.0000000,0.0000000,0.0000000,0.0229870,0.0579687,0.0000000,0.0000000,0.0077233,0.0000000,0.0000000,0.0000000,0.0579687,0.0000000,0.0000000,0.0077233,0.0000000,0.0000000,0.0000000,0.0579687,0.0000000,0.0000000,0.0077233,0.0077233,0.0000000,0.0000000,0.0020549,0.0000000,0.0000000,0.0000000,0.0077233,0.0000000,0.0000000,0.0020549,0.0000000,0.0000000,0.0000000,0.0077233,0.0000000,0.0000000,0.0020549
56.4978220,1.0006001,,-0.9595228,-0.2816178,0.0001743,0.0027162,0.0004534,-0.0011245,0.0014970,,,,2.1591840,-6.9269910,-21.3697929,0.0000000,0.0000000,0.0000000,0.0200120,0.0582778,0.0000000,0.0000000,0.0077645,0.0000000,0.0000000,0.0000000,0.0582778,0.0000000,0.0000000,0.0077645,0.0000000,0.0000000,0.0000000,0.0582778,0.0000000,0.0000000,0.0077645,0.0077645,0.0000000,0.0000000,0.0020604,0.0000000,0.0000000,0.0000000,0.0077645,0.0000000,0.0000000,0.0020604,0.0000000,0.0000000,0.0000000,0.0077645,0.0000000,0.0000000,0.0020604
56.5181200,0.9994500,,-0.9595228,-0.2816179,0.0001645,0.0027021,-0.0025733,0.0020623,0.0005043,,,,2.1591840,-6.9269910,-21.3697929,0.0000000,0.0000000,0.0000000,0.0199890,0.0585882,0.0000000,0.0000000,0.0078057,0.0000000,0.0000000,0.0000000,0.0585882,0.0000000,0.0000000,0.0078057,0.0000000,0.0000000,0.0000000,0.0585882,0.0000000,0.0000000,0.0078057,0.0078057,0.0000000,0.0000000,0.0020659,0.0000000,0.0000000,0.0000000,0.0078057,0.0000000,0.0000000,0.0020659,0.0000000,0.0000000,0.0000000,0.0078057,0.0000000,0.0000000,0.0020659
56.5377760,0.9999500,,-0.9595228,-0.2816179,0.0001581,0.0026960,-0.0018970,0.0004818,0.0004963,,,,2.1591840,-6.9269910,-21.3697929,0.0000000,0.0000000,0.0000000,0.0199990,0.0589004,0.0000000,0.0000000,0.0078471,0.0000000,0.0000000,0.0000000,0.0589004,0.0000000,0.0000000,0.0078471,0.0000000,0.0000000,0.0000000,0.0589004,0.0000000,0.0000000,0.0078471,0.0078471,0.0000000,0.0000000,0.0020713,0.0000000,0.0000000,0.0000000,0.0078471,0.0000000,0.0000000,0.0020713,0.0000000,0.0000000,0.0000000,0.0078471,0.0000000,0.0000000,0.0020713
56.5538730,,1.0200100,-0.9595228,-0.2816179,0.0001581,0.0026960,,,,0.0000000,0.0000000,0.0000000,2.1591840,-6.9269910,-21.3697929,0.0000000,0.0000000,0.0000000,0.1020010,0.0573362,0.0000000,0.0000000,0.0076387,0.0000000,0.0000000,0.0000000,0.0573362,0.0000000,0.0000000,0.0076387,0.0000000,0.0000000,0.0000000,0.0573362,0.0000000,0.0000000,0.0076387,0.0076387,0.0000000,0.0000000,0.0020436,0.0000000,0.0000000,0.0000000,0.0076387,0.0000000,0.0000000,0.0020436,0.0000000,0.0000000,0.0000000,0.0076387,0.0000000,0.0000000,0.0020436
56.5675010,1.0002501,,-0.9595228,-0.2816179,0.0001466,0.0026888,-0.0005899,-0.0051988,-0.0056112,,,,2.1591840,-6.9269910,-21.3697929,0.0000000,0.0000000,0.0000000,0.0200050,0.0576418,0.0000000,0.0000000,0.0076796,0.0000000,0.0000000,0.0000000,0.0576418,0.0000000,0.0000000,0.0076796,0.0000000,0.0000000,0.0000000,0.0576418,0.0000000,0.0000000,0.0076796,0.0076796,0.0000000,0.0000000,0.0020491,0.0000000,0.0000000,0.0000000,0.0076796,0.0000000,0.0000000,0.0020491,0.0000000,0.0000000,0.0000000,0.0076796,0.0000000,0.0000000,0.0020491
56.5806010,1.1497501,,-0.9595228,-0.2816180,0.0001326,0.0026759,0.0029781,0.0043891,-0.0037822,,,,2.1591840,-6.9269910,-21.3697929,0.0000000,0.0000000,0.0000000,0.0229950,0.0579950,0.0000000,0.0000000,0.0077268,0.0000000,0.0000000,0.0000000,0.0579950,0.0000000,0.0000000,0.0077268,0.0000000,0.0000000,0.0000000,0.0579950,0.0000000,0.0000000,0.0077268,0.0077268,0.0000000,0.0000000,0.0020554,0.0000000,0.0000000,0.0000000,0.0077268,0.0000000,0.0000000,0.0020554,0.0000000,0.0000000,0.0000000,0.0077268,0.0000000,0.0000000,0.0020554
56.6017790,1.0502001,,-0.9595228,-0.2816181,0.0001018,0.0026711,0.0076459,0.0062381,0.0007945,,,,2.1591840,-6.9269910,-21.3697929,0.0000000,0.0000000,0.0000000,0.0210040,0.0583196,0.0000000,0.0000000,0.0077700,0.0000000,0.0000000,0.0000000,0.0583196,0.0000000,0.0000000,0.0077700,0.0000000,0.0000000,0.0000000,0.0583196,0.0000000,0.0000000,0.0077700,0.0077700,0.0000000,0.0000000,0.0020611,0.0000000,0.0000000,0.0000000,0.0077700,0.0000000,0.0000000,0.0020611,0.0000000,0.0000000,0.0000000,0.0077700,0.0000000,0.0000000,0.0020611
56.6242700,1.0502001,,-0.9595228,-0.2816181,0.0000801,0.0026619,0.0026480,0.0042177,0.0011297,,,,2.1591840,-6.9269910,-21.3697929,0.0000000,0.0000000,0.0000000,0.0210040,0.0586460,0.0000000,0.0000000,0.0078134,0.0000000,0.0000000,0.0000000,0.0586460,0.0000000,0.0000000,0.0078134,0.0000000,0.0000000,0.0000000,0.0586460,0.0000000,0.0000000,0.0078134,0.0078134,0.0000000,0.0000000,0.0020669,0.0000000,0.0000000,0.0000000,0.0078134,0.0000000,0.0000000,0.0020669,0.0000000,0.0000000,0.0000000,0.0078134,0.0000000,0.0000000,0.0020669
56.6450650,,0.9999800,-0.9595228,-0.2816182,0.0000592,0.0026761,,,,0.0000000,0.0000000,0.0000000,2.1591840,-6.9269910,-21.3697929,0.0000000,0.0000000,0.0000000,0.0999980,0.0570950,0.0000000,0.0000000,0.0076067,0.0000000,0.0000000,0.0000000,0.0570950,0.0000000,0.0000000,0.0076067,0.0000000,0.0000000,0.0000000,0.0570950,0.0000000,0.0000000,0.0076067,0.0076067,0.0000000,0.0000000,0.0020394,0.0000000,0.0000000,0.0000000,0.0076067,0.0000000,0.0000000,0.0020394,0.0000000,0.0000000,0.0000000,0.0076067,0.0000000,0.0000000,0.0020394
56.6585800,1.0498999,,-0.9595228,-0.2816182,0.0000592,0.0026761,-0.0015904,-0.0009124,0.0003207,,,,2.1591840,-6.9269910,-21.3697929,0.0000000,0.0000000,0.0000000,0.0209980,0.0574145,0.0000000,0.0000000,0.0076496,0.0000000,0.0000000,0.0000000,0.0574145,0.0000000,0.0000000,0.0076496,0.0000000,0.0000000,0.0000000,0.0574145,0.0000000,0.0000000,0.0076496,0.0076496,0.0000000,0.0000000,0.0020451,0.0000000,0.0000000,0.0000000,0.0076496,0.0000000,0.0000000,0.0020451,0.0000000,0.0000000,0.0000000,0.0076496,0.0000000,0.0000000,0.0020451
56.6719800,1.3997000,,-0.9595228,-0.2816182,0.0000344,0.0026789,0.0028593,0.0006577,0.0016252,,,,2.1591840,-6.9269910,-21.3697929,0.0000000,0.0000000,0.0000000,0.0279940,0.0578428,0.0000000,0.0000000,0.0077070,0.0000000,0.0000000,0.0000000,0.0578428,0.0000000,0.0000000,0.0077070,0.0000000,0.0000000,0.0000000,0.0578428,0.0000000,0.0000000,0.0077070,0.0077070,0.0000000,0.0000000,0.0020528,0.0000000,0.0000000,0.0000000,0.0077070,0.0000000,0.0000000,0.0020528,0.0000000,0.0000000,0.0000000,0.0077070,0.0000000,0.0000000,0.0020528
56.6916880,1.0003500,,-0.9595228,-0.2816183,0.0000241,0.0026786,0.0006896,-0.0041725,-0.0018730,,,,2.1591840,-6.9269910,-21.3697929,0.0000000,0.0000000,0.0000000,0.0200070,0.0581512,0.0000000,0.0000000,0.0077481,0.0000000,0.0000000,0.0000000,0.0581512,0.0000000,0.0000000,0.0077481,0.0000000,0.0000000,0.0000000,0.0581512,0.0000000,0.0000000,0.0077481,0.0077481,0.0000000,0.0000000,0.0020583,0.0000000,0.0000000,0.0000000,0.0077481,0.0000000,0.0000000,0.0020583,0.0000000,0.0000000,0.0000000,0.0077481,0.0000000,0.0000000,0.0020583
56.7127710,1.0497501,,-0.9595228,-0.2816183,0.0000057,0.0026622,-0.0023636,0.0004543,0.0041905,,,,2.1591840,-6.9269910,-21.3697929,0.0000000,0.0000000,0.0000000,0.0209950,0.0584765,0.0000000,0.0000000,0.0077913,0.0000000,0.0000000,0.0000000,0.0584765,0.0000000,0.0000000,0.0077913,0.0000000,0.0000000,0.0000000,0.0584765,0.0000000,0.0000000,0.0077913,0.0077913,0.0000000,0.0000000,0.0020640,0.0000000,0.0000000,0.0000000,0.0077913,0.0000000,0.0000000,0.0020640,0.0000000,0.0000000,0.0000000,0.0077913,0.0000000,0.0000000,0.0020640
56.7336370,1.0500000,,-0.9595228,-0.2816184,-0.0000028,0.0026381,0.0054023,0.0044462,0.0062456,,,,2.1591840,-6.9269910,-21.3697929,0.0000000,0.0000000,0.0000000,0.0210000,0.0588037,0.0000000,0.0000000,0.0078348,0.0000000,0.0000000,0.0000000,0.0588037,0.0000000,0.0000000,0.0078348,0.0000000,0.0000000,0.0000000,0.0588037,0.0000000,0.0000000,0.0078348,0.0078348,0.0000000,0.0000000,0.0020698,0.0000000,0.0000000,0.0000000,0.0078348,0.0000000,0.0000000,0.0020698,0.0000000,0.0000000,0.0000000,0.0078348,0.0000000,0.0000000,0.0020698
56.7497110,,1.0200399,-0.9595228,-0.2816184,-0.0000028,0.0026381,,,,0.0000000,0.0000000,0.0000000,2.1591840,-6.9269910,-21.3697929,0.0000000,0.0000000,0.0000000,0.1020040,0.0572446,0.0000000,0.0000000,0.0076270,0.0000000,0.0000000,0.0000000,0.0572446,0.0000000,0.0000000,0.0076270,0.0000000,0.0000000,0.0000000,0.0572446,0.0000000,0.0000000,0.0076270,0.0076270,0.0000000,0.0000000,0.0020421,0.0000000,0.0000000,0.0000000,0.0076270,0.0000000,0.0000000,0.0020421,0.0000000,0.0000000,0.0000000,0.0076270,0.0000000,0.0000000,0.0020421
56.7632530,1.0999500,,-0.9595229,-0.2816185,-0.0000304,0.0026094,0.0007023,0.0024901,0.0075173,,,,2.1591840,-6.9269910,-21.3697929,0.0000000,0.0000000,0.0000000,0.0219990,0.0575801,0.0000000,0.0000000,0.0076720,0.0000000,0.0000000,0.0000000,0.0575801,0.0000000,0.0000000,0.0076720,0.0000000,0.0000000,0.0000000,0.0575801,0.0000000,0.0000000,0.0076720,0.0076720,0.0000000,0.0000000,0.0020481,0.0000000,0.0000000,0.0000000,0.0076720,0.0000000,0.0000000,0.0020481,0.0000000,0.0000000,0.0000000,0.0076720,0.0000000,0.0000000,0.0020481
56.7769700,1.0502501,,-0.9595230,-0.2816185,-0.0000434,0.0025894,0.0008013,0.0005279,0.0049794,,,,2.1591840,-6.9269910,-21.3697929,0.0000000,0.0000000,0.0000000,0.0210050,0.0579024,0.0000000,0.0000000,0.0077151,0.0000000,0.0000000,0.0000000,0.0579024,0.0000000,0.0000000,0.0077151,0.0000000,0.0000000,0.0000000,0.0579024,0.0000000,0.0000000,0.0077151,0.0077151,0.0000000,0.0000000,0.0020539,0.0000000,0.0000000,0.0000000,0.0077151,0.0000000,0.0000000,0.0020539,0.0000000,0.0000000,0.0000000,0.0077151,0.0000000,0.0000000,0.0020539
56.7967100,1.0001501,,-0.9595230,-0.2816185,-0.0000484,0.0025771,-0.0045203,-0.0009491,0.0032221,,,,2.1591840,-6.9269910,-21.3697929,0.0000000,0.0000000,0.0000000,0.0200030,0.0582111,0.0000000,0.0000000,0.0077562,0.0000000,0.0000000,0.0000000,0.0582111,0.0000000,0.0000000,0.0077562,0.0000000,0.0000000,0.0000000,0.0582111,0.0000000,0.0000000,0.0077562,0.0077562,0.0000000,0.0000000,0.0020594,0.0000000,0.0000000,0.0000000,0.0077562,0.0000000,0.0000000,0.0020594,0.0000000,0.0000000,0.0000000,0.0077562,0.0000000,0.0000000,0.0020594
56.8177770,1.0496501,,-0.9595230,-0.2816185,-0.0000371,0.0025863,-0.0003299,-0.0023819,0.0003904,,,,2.1591840,-6.9269910,-21.3697929,0.0000000,0.0000000,0.0000000,0.0209930,0.0585367,0.0000000,0.0000000,0.0077995,0.0000000,0.0000000,0.0000000,0.0585367,0.0000000,0.0000000,0.0077995,0.0000000,0.0000000,0.0000000,0.0585367,0.0000000,0.0000000,0.0077995,0.0077995,0.0000000,0.0000000,0.0020651,0.0000000,0.0000000,0.0000000,0.0077995,0.0000000,0.0000000,0.0020651,0.0000000,0.0000000,0.0000000,0.0077995,0.0000000,0.0000000,0.0020651
56.8388290,1.0500000,,-0.9595230,-0.2816185,-0.0000382,0.0025971,0.0029707,-0.0023583,-0.0005372,,,,2.1591840,-6.9269910,-21.3697929,0.0000000,0.0000000,0.0000000,0.0210000,0.0588643,0.0000000,0.0000000,0.0078429,0.0000000,0.0000000,0.0000000,0.0588643,0.0000000,0.0000000,0.0078429,0.0000000,0.0000000,0.0000000,0.0588643,0.0000000,0.0000000,0.0078429,0.0078429,0.0000000,0.0000000,0.0020709,0.0000000,0.0000000,0.0000000,0.0078429,0.0000000,0.0000000,0.0020709,0.0000000,0.0000000,0.0000000,0.0078429,0.0000000,0.0000000,0.0020709
56.8549450,,1.0000299,-0.9595230,-0.2816185,-0.0000382,0.0025971,,,,0.0000000,0.0000000,0.0000000,2.1591840,-6.9269910,-21.3697929,0.0000000,0.0000000,0.0000000,0.1000030,0.0573020,0.0000000,0.0000000,0.0076348,0.0000000,0.0000000,0.0000000,0.0573020,0.0000000,0.0000000,0.0076348,0.0000000,0.0000000,0.0000000,0.0573020,0.0000000,0.0000000,0.0076348,0.0076348,0.0000000,0.0000000,0.0020432,0.0000000,0.0000000,0.0000000,0.0076348,0.0000000,0.0000000,0.0020432,0.0000000,0.0000000,0.0000000,0.0076348,0.0000000,0.0000000,0.0020432
56.8684000,1.1000500,,-0.9595230,-0.2816185,-0.0000384,0.0025794,0.0031715,0.0071293,0.0046142,,,,2.1591840,-6.9269910,-21.3697929,0.0000000,0.0000000,0.0000000,0.0220010,0.0576379,0.0000000,0.0000000,0.0076798,0.0000000,0.0000000,0.0000000,0.0576379,0.0000000,0.0000000,0.0076798,0.0000000,0.0000000,0.0000000,0.0576379,0.0000000,0.0000000,0.0076798,0.0076798,0.0000000,0.0000000,0.0020492,0.0000000,0.0000000,0.0000000,0.0076798,0.0000000,0.0000000,0.0020492,0.0000000,0.0000000,0.0000000,0.0076798,0.0000000,0.0000000,0.0020492
56.8819540,1.0503000,,-0.9595230,-0.2816187,-0.0000865,0.0025467,0.0058811,0.0113161,0.0018188,,,,2.1591840,-6.9269910,-21.3697929,0.0000000,0.0000000,0.0000000,0.0210060,0.0579606,0.0000000,0.0000000,0.0077229,0.0000000,0.0000000,0.0000000,0.0579606,0.0000000,0.0000000,0.0077229,0.0000000,0.0000000,0.0000000,0.0579606,0.0000000,0.0000000,0.0077229,0.0077229,0.0000000,0.0000000,0.0020550,0.0000000,0.0000000,0.0000000,0.0077229,0.0000000,0.0000000,0.0020550,0.0000000,0.0000000,0.0000000,0.0077229,0.0000000,0.0000000,0.0020550
56.9016840,1.0000000,,-0.9595230,-0.2816187,-0.0001041,0.0025428,0.0023531,0.0026902,0.0045715,,,,2.1591840,-6.9269910,-21.3697929,0.0000000,0.0000000,0.0000000,0.0200000,0.0582695,0.0000000,0.0000000,0.0077640,0.0000000,0.0000000,0.0000000,0.0582695,0.0000000,0.0000000,0.0077640,0.0000000,0.0000000,0.0000000,0.0582695,0.0000000,0.0000000,0.0077640,0.0077640,0.0000000,0.0000000,0.0020604,0.0000000,0.0000000,0.0000000,0.0077640,0.0000000,0.0000000,0.0020604,0.0000000,0.0000000,0.0000000,0.0077640,0.0000000,0.0000000,0.0020604
56.9228530,1.0496501,,-0.9595230,-0.2816187,-0.0000992,0.0025400,-0.0018218,0.0081505,-0.0001556,,,,2.1591840,-6.9269910,-21.3697929,0.0000000,0.0000000,0.0000000,0.0209930,0.0585955,0.0000000,0.0000000,0.0078074,0.0000000,0.0000000,0.0000000,0.0585955,0.0000000,0.0000000,0.0078074,0.0000000,0.0000000,0.0000000,0.0585955,0.0000000,0.0000000,0.0078074,0.0078074,0.0000000,0.0000000,0.0020662,0.0000000,0.0000000,0.0000000,0.0078074,0.0000000,0.0000000,0.0020662,0.0000000,0.0000000,0.0000000,0.0078074,0.0000000,0.0000000,0.0020662
56.9436030,1.0500000,,-0.9595231,-0.2816187,-0.0000926,0.0025137,0.0014847,0.0093701,0.0018753,,,,2.1591840,-6.9269910,-21.3697929,0.0000000,0.0000000,0.0000000,0.0210000,0.0589234,0.0000000,0.0000000,0.0078508,0.0000000,0.0000000,0.0000000,0.0589234,0.0000000,0.0000000,0.0078508,0.0000000,0.0000000,0.0000000,0.0589234,0.0000000,0.0000000,0.0078508,0.0078508,0.0000000,0.0000000,0.0020720,0.0000000,0.0000000,0.0000000,0.0078508,0.0000000,0.0000000,0.0020720,0.0000000,0.0000000,0.0000000,0.0078508,0.0000000,0.0000000,0.0020720
56.9597010,,0.9999400,-0.9595231,-0.2816187,-0.0000926,0.0025137,,,,0.0000000,0.0000000,0.0000000,2.1591840,-6.9269910,-21.3697929,0.0000000,0.0000000,0.0000000,0.0999940,0.0573579,0.0000000,0.0000000,0.0076422,0.0000000,0.0000000,0.0000000,0.0573579,0.0000000,0.0000000,0.0076422,0.0000000,0.0000000,0.0000000,0.0573579,0.0000000,0.0000000,0.0076422,0.0076422,0.0000000,0.0000000,0.0020442,0.0000000,0.0000000,0.0000000,0.0076422,0.0000000,0.0000000,0.0020442,0.0000000,0.0000000,0.0000000,0.0076422,0.0000000,0.0000000,0.0020442
56.9731980,1.0999500,,-0.9595231,-0.2816187,-0.0000990,0.0025022,-0.0034767,0.0009466,-0.0039452,,,,2.1591840,-6.9269910,-21.3697929,0.0000000,0.0000000,0.0000000,0.0219990,0.0576942,0.0000000,0.0000000,0.0076873,0.0000000,0.0000000,0.0000000,0.0576942,0.0000000,0.0000000,0.0076873,0.0000000,0.0000000,0.0000000,0.0576942,0.0000000,0.0000000,0.0076873,0.0076873,0.0000000,0.0000000,0.0020502,0.0000000,0.0000000,0.0000000,0.0076873,0.0000000,0.0000000,0.0020502,0.0000000,0.0000000,0.0000000,0.0076873,0.0000000,0.0000000,0.0020502
56.9870180,1.0502501,,-0.9595232,-0.2816188,-0.0001053,0.0024560,-0.0003193,0.0037311,-0.0044140,,,,2.1591840,-6.9269910,-21.3697929,0.0000000,0.0000000,0.0000000,0.0210050,0.0580171,0.0000000,0.0000000,0.0077304,0.0000000,0.0000000,0.0000000,0.0580171,0.0000000,0.0000000,0.0077304,0.0000000,0.0000000,0.0000000,0.0580171,0.0000000,0.0000000,0.0077304,0.0077304,0.0000000,0.0000000,0.0020560,0.0000000,0.0000000,0.0000000,0.0077304,0.0000000,0.0000000,0.0020560,0.0000000,0.0000000,0.0000000,0.0077304,0.0000000,0.0000000,0.0020560
57.0067290,1.0002501,,-0.9595233,-0.2816188,-0.0001216,0.0024142,-0.0021738,-0.0000418,-0.0034277,,,,2.1591840,-6.9269910,-21.3697929,0.0000000,0.0000000,0.0000000,0.0200050,0.0583264,0.0000000,0.0000000,0.0077716,0.0000000,0.0000000,0.0000000,0.0583264,0.0000000,0.0000000,0.0077716,0.0000000,0.0000000,0.0000000,0.0583264,0.0000000,0.0000000,0.0077716,0.0077716,0.0000000,0.0000000,0.0020614,0.0000000,0.0000000,0.0000000,0.0077716,0.0000000,0.0000000,0.0020614,0.0000000,0.0000000,0.0000000,0.0077716,0.0000000,0.0000000,0.0020614
57.0278130,1.0495499,,-0.9595233,-0.2816189,-0.0001382,0.0024116,0.0002864,-0.0023860,-0.0017138,,,,2.1591840,-6.9269910,-21.3697929,0.0000000,0.0000000,0.0000000,0.0209910,0.0586527,0.0000000,0.0000000,0.0078149,0.0000000,0.0000000,0.0000000,0.0586527,0.0000000,0.0000000,0.0078149,0.0000000,0.0000000,0.0000000,0.0586527,0.0000000,0.0000000,0.0078149,0.0078149,0.0000000,0.0000000,0.0020672,0.0000000,0.0000000,0.0000000,0.0078149,0.0000000,0.0000000,0.0020672,0.0000000,0.0000000,0.0000000,0.0078149,0.0000000,0.0000000,0.0020672
57.0481260,,1.0100000,-0.9595233,-0.2816190,-0.0001595,0.0024078,,,,0.0000000,0.0000000,0.0000000,2.1591840,-6.9269910,-21.3697929,0.0000000,0.0000000,0.0000000,0.1010000,0.0571014,0.0000000,0.0000000,0.0076082,0.0000000,0.0000000,0.0000000,0.0571014,0.0000000,0.0000000,0.0076082,0.0000000,0.0000000,0.0000000,0.0571014,0.0000000,0.0000000,0.0076082,0.0076082,0.0000000,0.0000000,0.0020397,0.0000000,0.0000000,0.0000000,0.0076082,0.0000000,0.0000000,0.0020397,0.0000000,0.0000000,0.0000000,0.0076082,0.0000000,0.0000000,0.0020397
57.0619350,0.9999500,,-0.9595233,-0.2816190,-0.0001595,0.0024078,0.0032026,0.0020419,0.0057349,,,,2.1591840,-6.9269910,-21.3697929,0.0000000,0.0000000,0.0000000,0.0199990,0.0574057,0.0000000,0.0000000,0.0076490,0.0000000,0.0000000,0.0000000,0.0574057,0.0000000,0.0000000,0.0076490,0.0000000,0.0000000,0.0000000,0.0574057,0.0000000,0.0000000,0.0076490,0.0076490,0.0000000,0.0000000,0.0020451,0.0000000,0.0000000,0.0000000,0.0076490,0.0000000,0.0000000,0.0020451,0.0000000,0.0000000,0.0000000,0.0076490,0.0000000,0.0000000,0.0020451
57.0747360,1.3499501,,-0.9595233,-0.2816189,-0.0001327,0.0024130,0.0015555,0.0011201,0.0031116,,,,2.1591840,-6.9269910,-21.3697929,0.0000000,0.0000000,0.0000000,0.0269990,0.0578187,0.0000000,0.0000000,0.0077043,0.0000000,0.0000000,0.0000000,0.0578187,0.0000000,0.0000000,0.0077043,0.0000000,0.0000000,0.0000000,0.0578187,0.0000000,0.0000000,0.0077043,0.0077043,0.0000000,0.0000000,0.0020525,0.0000000,0.0000000,0.0000000,0.0077043,0.0000000,0.0000000,0.0020525,0.0000000,0.0000000,0.0000000,0.0077043,0.0000000,0.0000000,0.0020525
57.0956660,1.0502001,,-0.9595233,-0.2816189,-0.0001298,0.0024189,-0.0002675,0.0048096,0.0086359,,,,2.1591840,-6.9269910,-21.3697929,0.0000000,0.0000000,0.0000000,0.0210040,0.0581424,0.0000000,0.0000000,0.0077475,0.0000000,0.0000000,0.0000000,0.0581424,0.0000000,0.0000000,0.0077475,0.0000000,0.0000000,0.0000000,0.0581424,0.0000000,0.0000000,0.0077475,0.0077475,0.0000000,0.0000000,0.0020583,0.0000000,0.0000000,0.0000000,0.0077475,0.0000000,0.0000000,0.0020583,0.0000000,0.0000000,0.0000000,0.0077475,0.0000000,0.0000000,0.0020583
57.1169600,1.0500500,,-0.9595233,-0.2816190,-0.0001436,0.0024007,0.0017355,0.0078217,0.0026089,,,,2.1591840,-6.9269910,-21.3697929,0.0000000,0.0000000,0.0000000,0.0210010,0.0584678,0.0000000,0.0000000,0.0077908,0.0000000,0.0000000,0.0000000,0.0584678,0.0000000,0.0000000,0.0077908,0.0000000,0.0000000,0.0000000,0.0584678,0.0000000,0.0000000,0.0077908,0.0077908,0.0000000,0.0000000,0.0020641,0.0000000,0.0000000,0.0000000,0.0077908,0.0000000,0.0000000,0.0020641,0.0000000,0.0000000,0.0000000,0.0077908,0.0000000,0.0000000,0.0020641
57.1369720,0.9999000,,-0.9595233,-0.2816189,-0.0001319,0.0023920,0.0013026,0.0066574,0.0044783,,,,2.1591840,-6.9269910,-21.3697929,0.0000000,0.0000000,0.0000000,0.0199980,0.0587794,0.0000000,0.0000000,0.0078321,0.0000000,0.0000000,0.0000000,0.0587794,0.0000000,0.0000000,0.0078321,0.0000000,0.0000000,0.0000000,0.0587794,0.0000000,0.0000000,0.0078321,0.0078321,0.0000000,0.0000000,0.0020695,0.0000000,0.0000000,0.0000000,0.0078321,0.0000000,0.0000000,0.0020695,0.0000000,0.0000000,0.0000000,0.0078321,0.0000000,0.0000000,0.0020695
57.1530040,,1.0000100,-0.9595233,-0.2816189,-0.0001319,0.0023920,,,,0.0000000,0.0000000,0.0000000,2.1591840,-6.9269910,-21.3697929,0.0000000,0.0000000,0.0000000,0.1000010,0.0572215,0.0000000,0.0000000,0.0076245,0.0000000,0.0000000,0.0000000,0.0572215,0.0000000,0.0000000,0.0076245,0.0000000,0.0000000,0.0000000,0.0572215,0.0000000,0.0000000,0.0076245,0.0076245,0.0000000,0.0000000,0.0020419,0.0000000,0.0000000,0.0000000,0.0076245,0.0000000,0.0000000,0.0020419,0.0000000,0.0000000,0.0000000,0.0076245,0.0000000,0.0000000,0.0020419
57.1668900,1.0002000,,-0.9595234,-0.2816189,-0.0001115,0.0023787,-0.0018054,0.0002083,0.0000419,,,,2.1591840,-6.9269910,-21.3697929,0.0000000,0.0000000,0.0000000,0.0200040,0.0575265,0.0000000,0.0000000,0.0076654,0.0000000,0.0000000,0.0000000,0.0575265,0.0000000,0.0000000,0.0076654,0.0000000,0.0000000,0.0000000,0.0575265,0.0000000,0.0000000,0.0076654,0.0076654,0.0000000,0.0000000,0.0020474,0.0000000,0.0000000,0.0000000,0.0076654,0.0000000,0.0000000,0.0020474,0.0000000,0.0000000,0.0000000,0.0076654,0.0000000,0.0000000,0.0020474
57.1796500,1.1496500,,-0.9595234,-0.2816189,-0.0001176,0.0023825,0.0063681,0.0016300,0.0022182,,,,2.1591840,-6.9269910,-21.3697929,0.0000000,0.0000000,0.0000000,0.0229930,0.0578790,0.0000000,0.0000000,0.0077126,0.0000000,0.0000000,0.0000000,0.0578790,0.0000000,0.0000000,0.0077126,0.0000000,0.0000000,0.0000000,0.0578790,0.0000000,0.0000000,0.0077126,0.0077126,0.0000000,0.0000000,0.0020537,0.0000000,0.0000000,0.0000000,0.0077126,0.0000000,0.0000000,0.0020537,0.0000000,0.0000000,0.0000000,0.0077126,0.0000000,0.0000000,0.0020537
57.1995090,1.0001501,,-0.9595233,-0.2816189,-0.0001274,0.0024192,0.0023677,-0.0058989,-0.0025530,,,,2.1591840,-6.9269910,-21.3697929,0.0000000,0.0000000,0.0000000,0.0200030,0.0581876,0.0000000,0.0000000,0.0077537,0.0000000,0.0000000,0.0000000,0.0581876,0.0000000,0.0000000,0.0077537,0.0000000,0.0000000,0.0000000,0.0581876,0.0000000,0.0000000,0.0077537,0.0077537,0.0000000,0.0000000,0.0020592,0.0000000,0.0000000,0.0000000,0.0077537,0.0000000,0.0000000,0.0020592,0.0000000,0.0000000,0.0000000,0.0077537,0.0000000,0.0000000,0.0020592
57.2207880,1.0499500,,-0.9595233,-0.2816189,-0.0001351,0.0024318,-0.0008608,-0.0025908,-0.0002999,,,,2.1591840,-6.9269910,-21.3697929,0.0000000,0.0000000,0.0000000,0.0209990,0.0585132,0.0000000,0.0000000,0.0077970,0.0000000,0.0000000,0.0000000,0.0585132,0.0000000,0.0000000,0.0077970,0.0000000,0.0000000,0.0000000,0.0585132,0.0000000,0.0000000,0.0077970,0.0077970,0.0000000,0.0000000,0.0020649,0.0000000,0.0000000,0.0000000,0.0077970,0.0000000,0.0000000,0.0020649,0.0000000,0.0000000,0.0000000,0.0077970,0.0000000,0.0000000,0.0020649
57.2421930,0.9999500,,-0.9595232,-0.2816188,-0.0001214,0.0024545,-0.0078157,-0.0104202,-0.0030797,,,,2.1591840,-6.9269910,-21.3697929,0.0000000,0.0000000,0.0000000,0.0199990,0.0588251,0.0000000,0.0000000,0.0078384,0.0000000,0.0000000,0.0000000,0.0588251,0.0000000,0.0000000,0.0078384,0.0000000,0.0000000,0.0000000,0.0588251,0.0000000,0.0000000,0.0078384,0.0078384,0.0000000,0.0000000,0.0020704,0.0000000,0.0000000,0.0000000,0.0078384,0.0000000,0.0000000,0.0020704,0.0000000,0.0000000,0.0000000,0.0078384,0.0000000,0.0000000,0.0020704
57.2580980,,1.0200000,-0.9595232,-0.2816188,-0.0001214,0.0024682,,,,0.0000000,0.0000000,0.0000000,2.1591840,-6.9269910,-21.3697929,0.0000000,0.0000000,0.0000000,0.1020000,0.0572648,0.0000000,0.0000000,0.0076304,0.0000000,0.0000000,0.0000000,0.0572648,0.0000000,0.0000000,0.0076304,0.0000000,0.0000000,0.0000000,0.0572648,0.0000000,0.0000000,0.0076304,0.0076304,0.0000000,0.0000000,0.0020427,0.0000000,0.0000000,0.0000000,0.0076304,0.0000000,0.0000000,0.0020427,0.0000000,0.0000000,0.0000000,0.0076304,0.0000000,0.0000000,0.0020427
57.2728910,1.0001000,,-0.9595232,-0.2816188,-0.0001238,0.0024682,-0.0032593,-0.0026161,-0.0083758,,,,2.1591840,-6.9269910,-21.3697929,0.0000000,0.0000000,0.0000000,0.0200020,0.0575700,0.0000000,0.0000000,0.0076714,0.0000000,0.0000000,0.0000000,0.0575700,0.0000000,0.0000000,0.0076714,0.0000000,0.0000000,0.0000000,0.0575700,0.0000000,0.0000000,0.0076714,0.0076714,0.0000000,0.0000000,0.0020482,0.0000000,0.0000000,0.0000000,0.0076714,0.0000000,0.0000000,0.0020482,0.0000000,0.0000000,0.0000000,0.0076714,0.0000000,0.0000000,0.0020482
57.2858420,1.2498500,,-0.9595231,-0.2816188,-0.0001242,0.0024823,-0.0000046,-0.0067554,-0.0000375,,,,2.1591840,-6.9269910,-21.3697929,0.0000000,0.0000000,0.0000000,0.0249970,0.0579536,0.0000000,0.0000000,0.0077226,0.0000000,0.0000000,0.0000000,0.0579536,0.0000000,0.0000000,0.0077226,0.0000000,0.0000000,0.0000000,0.0579536,0.0000000,0.0000000,0.0077226,0.0077226,0.0000000,0.0000000,0.0020550,0.0000000,0.0000000,0.0000000,0.0077226,0.0000000,0.0000000,0.0020550,0.0000000,0.0000000,0.0000000,0.0077226,0.0000000,0.0000000,0.0020550
57.3066940,1.0501500,,-0.9595232,-0.2816188,-0.0001176,0.0024644,-0.0003075,-0.0013025,0.0004695,,,,2.1591840,-6.9269910,-21.3697929,0.0000000,0.0000000,0.0000000,0.0210030,0.0582780,0.0000000,0.0000000,0.0077658,0.0000000,0.0000000,0.0000000,0.0582780,0.0000000,0.0000000,0.0077658,0.0000000,0.0000000,0.0000000,0.0582780,0.0000000,0.0000000,0.0077658,0.0077658,0.0000000,0.0000000,0.0020608,0.0000000,0.0000000,0.0000000,0.0077658,0.0000000,0.0000000,0.0020608,0.0000000,0.0000000,0.0000000,0.0077658,0.0000000,0.0000000,0.0020608
57.3280140,1.0503500,,-0.9595232,-0.2816188,-0.0001078,0.0024579,0.0034626,-0.0032071,-0.0019625,,,,2.1591840,-6.9269910,-21.3697929,0.0000000,0.0000000,0.0000000,0.0210070,0.0586042,0.0000000,0.0000000,0.0078092,0.0000000,0.0000000,0.0000000,0.0586042,0.0000000,0.0000000,0.0078092,0.0000000,0.0000000,0.0000000,0.0586042,0.0000000,0.0000000,0.0078092,0.0078092,0.0000000,0.0000000,0.0020666,0.0000000,0.0000000,0.0000000,0.0078092,0.0000000,0.0000000,0.0020666,0.0000000,0.0000000,0.0000000,0.0078092,0.0000000,0.0000000,0.0020666
57.3499030,,0.9999800,-0.9595232,-0.2816188,-0.0001034,0.0024649,,,,0.0000000,0.0000000,0.0000000,2.1591840,-6.9269910,-21.3697929,0.0000000,0.0000000,0.0000000,0.0999980,0.0570555,0.0000000,0.0000000,0.0076028,0.0000000,0.0000000,0.0000000,0.0570555,0.0000000,0.0000000,0.0076028,0.0000000,0.0000000,0.0000000,0.0570555,0.0000000,0.0000000,0.0076028,0.0076028,0.0000000,0.0000000,0.0020391,0.0000000,0.0000000,0.0000000,0.0076028,0.0000000,0.0000000,0.0020391,0.0000000,0.0000000,0.0000000,0.0076028,0.0000000,0.0000000,0.0020391
57.3634270,1.0501001,,-0.9595232,-0.2816188,-0.0001034,0.0024649,0.0072931,-0.0053572,0.0019484,,,,2.1591840,-6.9269910,-21.3697929,0.0000000,0.0000000,0.0000000,0.0210020,0.0573748,0.0000000,0.0000000,0.0076457,0.0000000,0.0000000,0.0000000,0.0573748,0.0000000,0.0000000,0.0076457,0.0000000,0.0000000,0.0000000,0.0573748,0.0000000,0.0000000,0.0076457,0.0076457,0.0000000,0.0000000,0.0020448,0.0000000,0.0000000,0.0000000,0.0076457,0.0000000,0.0000000,0.0020448,0.0000000,0.0000000,0.0000000,0.0076457,0.0000000,0.0000000,0.0020448
57.3769340,1.3997500,,-0.9595232,-0.2816188,-0.0000935,0.0024656,0.0021436,-0.0047233,0.0024391,,,,2.1591840,-6.9269910,-21.3697929,0.0000000,0.0000000,0.0000000,0.0279950,0.0578029,0.0000000,0.0000000,0.0077030,0.0000000,0.0000000,0.0000000,0.0578029,0.0000000,0.0000000,0.0077030,0.0000000,0.0000000,0.0000000,0.0578029,0.0000000,0.0000000,0.0077030,0.0077030,0.0000000,0.0000000,0.0020525,0.0000000,0.0000000,0.0000000,0.0077030,0.0000000,0.0000000,0.0020525,0.0000000,0.0000000,0.0000000,0.0077030,0.0000000,0.0000000,0.0020525
57.3969340,1.0001501,,-0.9595232,-0.2816188,-0.0001050,0.0024659,0.0100363,-0.0078395,-0.0021984,,,,2.1591840,-6.9269910,-21.3697929,0.0000000,0.0000000,0.0000000,0.0200030,0.0581111,0.0000000,0.0000000,0.0077441,0.0000000,0.0000000,0.0000000,0.0581111,0.0000000,0.0000000,0.0077441,0.0000000,0.0000000,0.0000000,0.0581111,0.0000000,0.0000000,0.0077441,0.0077441,0.0000000,0.0000000,0.0020580,0.0000000,0.0000000,0.0000000,0.0077441,0.0000000,0.0000000,0.0020580,0.0000000,0.0000000,0.0000000,0.0077441,0.0000000,0.0000000,0.0020580
57.4169310,0.9997500,,-0.9595232,-0.2816189,-0.0001156,0.0024413,0.0061702,-0.0067579,0.0003656,,,,2.1591840,-6.9269910,-21.3697929,0.0000000,0.0000000,0.0000000,0.0199950,0.0584208,0.0000000,0.0000000,0.0077853,0.0000000,0.0000000,0.0000000,0.0584208,0.0000000,0.0000000,0.0077853,0.0000000,0.0000000,0.0000000,0.0584208,0.0000000,0.0000000,0.0077853,0.0077853,0.0000000,0.0000000,0.0020635,0.0000000,0.0000000,0.0000000,0.0077853,0.0000000,0.0000000,0.0020635,0.0000000,0.0000000,0.0000000,0.0077853,0.0000000,0.0000000,0.0020635
57.4370170,1.0001501,,-0.9595233,-0.2816189,-0.0001006,0.0024339,-0.0006075,-0.0017997,-0.0020145,,,,2.1591840,-6.9269910,-21.3697929,0.0000000,0.0000000,0.0000000,0.0200030,0.0587322,0.0000000,0.0000000,0.0078267,0.0000000,0.0000000,0.0000000,0.0587322,0.0000000,0.0000000,0.0078267,0.0000000,0.0000000,0.0000000,0.0587322,0.0000000,0.0000000,0.0078267,0.0078267,0.0000000,0.0000000,0.0020689,0.0000000,0.0000000,0.0000000,0.0078267,0.0000000,0.0000000,0.0020689,0.0000000,0.0000000,0.0000000,0.0078267,0.0000000,0.0000000,0.0020689
57.4527520,,1.0000800,-0.9595233,-0.2816189,-0.0001006,0.0024339,,,,0.0000000,0.0000000,0.0000000,2.1591840,-6.9269910,-21.3697929,0.0000000,0.0000000,0.0000000,0.1000080,0.0571768,0.0000000,0.0000000,0.0076194,0.0000000,0.0000000,0.0000000,0.0571768,0.0000000,0.0000000,0.0076194,0.0000000,0.0000000,0.0000000,0.0571768,0.0000000,0.0000000,0.0076194,0.0076194,0.0000000,0.0000000,0.0020413,0.0000000,0.0000000,0.0000000,0.0076194,0.0000000,0.0000000,0.0020413,0.0000000,0.0000000,0.0000000,0.0076194,0.0000000,0.0000000,0.0020413
57.4665160,0.9999500,,-0.9595233,-0.2816188,-0.0000844,0.0024184,0.0031066,0.0004124,0.0009459,,,,2.1591840,-6.9269910,-21.3697929,0.0000000,0.0000000,0.0000000,0.0199990,0.0574816,0.0000000,0.0000000,0.0076603,0.0000000,0.0000000,0.0000000,0.0574816,0.0000000,0.0000000,0.0076603,0.0000000,0.0000000,0.0000000,0.0574816,0.0000000,0.0000000,0.0076603,0.0076603,0.0000000,0.0000000,0.0020468,0.0000000,0.0000000,0.0000000,0.0076603,0.0000000,0.0000000,0.0020468,0.0000000,0.0000000,0.0000000,0.0076603,0.0000000,0.0000000,0.0020468
57.4795700,1.1497000,,-0.9595233,-0.2816188,-0.0000573,0.0024086,-0.0032990,0.0020144,0.0016937,,,,2.1591840,-6.9269910,-21.3697929,0.0000000,0.0000000,0.0000000,0.0229940,0.0578338,0.0000000,0.0000000,0.0077074,0.0000000,0.0000000,0.0000000,0.0578338,0.0000000,0.0000000,0.0077074,0.0000000,0.0000000,0.0000000,0.0578338,0.0000000,0.0000000,0.0077074,0.0077074,0.0000000,0.0000000,0.0020531,0.0000000,0.0000000,0.0000000,0.0077074,0.0000000,0.0000000,0.0020531,0.0000000,0.0000000,0.0000000,0.0077074,0.0000000,0.0000000,0.0020531
57.5008140,1.0500500,,-0.9595233,-0.2816187,-0.0000278,0.0024246,0.0008453,-0.0032348,0.0062179,,,,2.1591840,-6.9269910,-21.3697929,0.0000000,0.0000000,0.0000000,0.0210010,0.0581576,0.0000000,0.0000000,0.0077506,0.0000000,0.0000000,0.0000000,0.0581576,0.0000000,0.0000000,0.0077506,0.0000000,0.0000000,0.0000000,0.0581576,0.0000000,0.0000000,0.0077506,0.0077506,0.0000000,0.0000000,0.0020589,0.0000000,0.0000000,0.0000000,0.0077506,0.0000000,0.0000000,0.0020589,0.0000000,0.0000000,0.0000000,0.0077506,0.0000000,0.0000000,0.0020589
57.5219600,1.0503500,,-0.9595233,-0.2816187,-0.0000106,0.0024208,-0.0009812,-0.0014877,0.0038414,,,,2.1591840,-6.9269910,-21.3697929,0.0000000,0.0000000,0.0000000,0.0210070,0.0584832,0.0000000,0.0000000,0.0077939,0.0000000,0.0000000,0.0000000,0.0584832,0.0000000,0.0000000,0.0077939,0.0000000,0.0000000,0.0000000,0.0584832,0.0000000,0.0000000,0.0077939,0.0077939,0.0000000,0.0000000,0.0020646,0.0000000,0.0000000,0.0000000,0.0077939,0.0000000,0.0000000,0.0020646,0.0000000,0.0000000,0.0000000,0.0077939,0.0000000,0.0000000,0.0020646
57.5432350,0.9996000,,-0.9595233,-0.2816187,-0.0000241,0.0024156,0.0005089,-0.0006370,0.0048504,,,,2.1591840,-6.9269910,-21.3697929,0.0000000,0.0000000,0.0000000,0.0199920,0.0587948,0.0000000,0.0000000,0.0078352,0.0000000,0.0000000,0.0000000,0.0587948,0.0000000,0.0000000,0.0078352,0.0000000,0.0000000,0.0000000,0.0587948,0.0000000,0.0000000,0.0078352,0.0078352,0.0000000,0.0000000,0.0020701,0.0000000,0.0000000,0.0000000,0.0078352,0.0000000,0.0000000,0.0020701,0.0000000,0.0000000,0.0000000,0.0078352,0.0000000,0.0000000,0.0020701
57.5590220,,1.0199900,-0.9595233,-0.2816187,-0.0000241,0.0024133,,,,0.0000000,0.0000000,0.0000000,2.1591840,-6.9269910,-21.3697929,0.0000000,0.0000000,0.0000000,0.1019990,0.0572361,0.0000000,0.0000000,0.0076275,0.0000000,0.0000000,0.0000000,0.0572361,0.0000000,0.0000000,0.0076275,0.0000000,0.0000000,0.0000000,0.0572361,0.0000000,0.0000000,0.0076275,0.0076275,0.0000000,0.0000000,0.0020424,0.0000000,0.0000000,0.0000000,0.0076275,0.0000000,0.0000000,0.0020424,0.0000000,0.0000000,0.0000000,0.0076275,0.0000000,0.0000000,0.0020424
57.5728640,1.0007499,,-0.9595233,-0.2816187,-0.0000140,0.0024133,-0.0026218,0.0046864,0.0099935,,,,2.1591840,-6.9269910,-21.3697929,0.0000000,0.0000000,0.0000000,0.0200150,0.0575415,0.0000000,0.0000000,0.0076684,0.0000000,0.0000000,0.0000000,0.0575415,0.0000000,0.0000000,0.0076684,0.0000000,0.0000000,0.0000000,0.0575415,0.0000000,0.0000000,0.0076684,0.0076684,0.0000000,0.0000000,0.0020479,0.0000000,0.0000000,0.0000000,0.0076684,0.0000000,0.0000000,0.0020479,0.0000000,0.0000000,0.0000000,0.0076684,0.0000000,0.0000000,0.0020479
57.5857950,1.1992000,,-0.9595232,-0.2816187,-0.0000355,0.0024505,0.0018476,-0.0001669,0.0069499,,,,2.1591840,-6.9269910,-21.3697929,0.0000000,0.0000000,0.0000000,0.0239840,0.0579093,0.0000000,0.0000000,0.0077176,0.0000000,0.0000000,0.0000000,0.0579093,0.0000000,0.0000000,0.0077176,0.0000000,0.0000000,0.0000000,0.0579093,0.0000000,0.0000000,0.0077176,0.0077176,0.0000000,0.0000000,0.0020545,0.0000000,0.0000000,0.0000000,0.0077176,0.0000000,0.0000000,0.0020545,0.0000000,0.0000000,0.0000000,0.0077176,0.0000000,0.0000000,0.0020545
57.6069360,1.0501001,,-0.9595231,-0.2816187,-0.0000397,0.0024859,0.0048148,-0.0025554,0.0032308,,,,2.1591840,-6.9269910,-21.3697929,0.0000000,0.0000000,0.0000000,0.0210020,0.0582335,0.0000000,0.0000000,0.0077608,0.0000000,0.0000000,0.0000000,0.0582335,0.0000000,0.0000000,0.0077608,0.0000000,0.0000000,0.0000000,0.0582335,0.0000000,0.0000000,0.0077608,0.0077608,0.0000000,0.0000000,0.0020603,0.0000000,0.0000000,0.0000000,0.0077608,0.0000000,0.0000000,0.0020603,0.0000000,0.0000000,0.0000000,0.0077608,0.0000000,0.0000000,0.0020603
57.6269400,1.0002000,,-0.9595231,-0.2816187,-0.0000255,0.0024999,-0.0053898,0.0038188,0.0013713,,,,2.1591840,-6.9269910,-21.3697929,0.0000000,0.0000000,0.0000000,0.0200040,0.0585440,0.0000000,0.0000000,0.0078021,0.0000000,0.0000000,0.0000000,0.0585440,0.0000000,0.0000000,0.0078021,0.0000000,0.0000000,0.0000000,0.0585440,0.0000000,0.0000000,0.0078021,0.0078021,0.0000000,0.0000000,0.0020657,0.0000000,0.0000000,0.0000000,0.0078021,0.0000000,0.0000000,0.0020657,0.0000000,0.0000000,0.0000000,0.0078021,0.0000000,0.0000000,0.0020657
57.6471190,0.9997000,,-0.9595231,-0.2816187,-0.0000249,0.0025049,0.0007307,0.0013829,-0.0044413,,,,2.1591840,-6.9269910,-21.3697929,0.0000000,0.0000000,0.0000000,0.0199940,0.0588559,0.0000000,0.0000000,0.0078434,0.0000000,0.0000000,0.0000000,0.0588559,0.0000000,0.0000000,0.0078434,0.0000000,0.0000000,0.0000000,0.0588559,0.0000000,0.0000000,0.0078434,0.0078434,0.0000000,0.0000000,0.0020712,0.0000000,0.0000000,0.0000000,0.0078434,0.0000000,0.0000000,0.0020712,0.0000000,0.0000000,0.0000000,0.0078434,0.0000000,0.0000000,0.0020712
57.6640530,,1.0000199,-0.9595231,-0.2816187,-0.0000249,0.0025029,,,,0.0000000,0.0000000,0.0000000,2.1591840,-6.9269910,-21.3697929,0.0000000,0.0000000,0.0000000,0.1000020,0.0572940,0.0000000,0.0000000,0.0076353,0.0000000,0.0000000,0.0000000,0.0572940,0.0000000,0.0000000,0.0076353,0.0000000,0.0000000,0.0000000,0.0572940,0.0000000,0.0000000,0.0076353,0.0076353,0.0000000,0.0000000,0.0020435,0.0000000,0.0000000,0.0000000,0.0076353,0.0000000,0.0000000,0.0020435,0.0000000,0.0000000,0.0000000,0.0076353,0.0000000,0.0000000,0.0020435
57.6778480,1.0005500,,-0.9595231,-0.2816187,-0.0000330,0.0025029,-0.0013513,0.0038195,-0.0044179,,,,2.1591840,-6.9269910,-21.3697929,0.0000000,0.0000000,0.0000000,0.0200110,0.0575996,0.0000000,0.0000000,0.0076762,0.0000000,0.0000000,0.0000000,0.0575996,0.0000000,0.0000000,0.0076762,0.0000000,0.0000000,0.0000000,0.0575996,0.0000000,0.0000000,0.0076762,0.0076762,0.0000000,0.0000000,0.0020490,0.0000000,0.0000000,0.0000000,0.0076762,0.0000000,0.0000000,0.0020490,0.0000000,0.0000000,0.0000000,0.0076762,0.0000000,0.0000000,0.0020490
57.6907630,1.1994500,,-0.9595231,-0.2816186,0.0000017,0.0025070,-0.0006146,-0.0025000,0.0031621,,,,2.1591840,-6.9269910,-21.3697929,0.0000000,0.0000000,0.0000000,0.0239890,0.0579679,0.0000000,0.0000000,0.0077255,0.0000000,0.0000000,0.0000000,0.0579679,0.0000000,0.0000000,0.0077255,0.0000000,0.0000000,0.0000000,0.0579679,0.0000000,0.0000000,0.0077255,0.0077255,0.0000000,0.0000000,0.0020556,0.0000000,0.0000000,0.0000000,0.0077255,0.0000000,0.0000000,0.0020556,0.0000000,0.0000000,0.0000000,0.0077255,0.0000000,0.0000000,0.0020556
57.7119630,1.0501500,,-0.9595231,-0.2816186,0.0000008,0.0025105,0.0009439,-0.0024936,0.0035342,,,,2.1591840,-6.9269910,-21.3697929,0.0000000,0.0000000,0.0000000,0.0210030,0.0582924,0.0000000,0.0000000,0.0077687,0.0000000,0.0000000,0.0000000,0.0582924,0.0000000,0.0000000,0.0077687,0.0000000,0.0000000,0.0000000,0.0582924,0.0000000,0.0000000,0.0077687,0.0077687,0.0000000,0.0000000,0.0020613,0.0000000,0.0000000,0.0000000,0.0077687,0.0000000,0.0000000,0.0020613,0.0000000,0.0000000,0.0000000,0.0077687,0.0000000,0.0000000,0.0020613
57.7319710,1.0001501,,-0.9595231,-0.2816186,-0.0000160,0.0025275,0.0024098,-0.0012544,0.0046968,,,,2.1591840,-6.9269910,-21.3697929,0.0000000,0.0000000,0.0000000,0.0200030,0.0586032,0.0000000,0.0000000,0.0078100,0.0000000,0.0000000,0.0000000,0.0586032,0.0000000,0.0000000,0.0078100,0.0000000,0.0000000,0.0000000,0.0586032,0.0000000,0.0000000,0.0078100,0.0078100,0.0000000,0.0000000,0.0020668,0.0000000,0.0000000,0.0000000,0.0078100,0.0000000,0.0000000,0.0020668,0.0000000,0.0000000,0.0000000,0.0078100,0.0000000,0.0000000,0.0020668
57.7533570,,0.9999000,-0.9595230,-0.2816186,-0.0000132,0.0025595,,,,0.0000000,0.0000000,0.0000000,2.1591840,-6.9269910,-21.3697929,0.0000000,0.0000000,0.0000000,0.0999900,0.0570545,0.0000000,0.0000000,0.0076036,0.0000000,0.0000000,0.0000000,0.0570545,0.0000000,0.0000000,0.0076036,0.0000000,0.0000000,0.0000000,0.0570545,0.0000000,0.0000000,0.0076036,0.0076036,0.0000000,0.0000000,0.0020393,0.0000000,0.0000000,0.0000000,0.0076036,0.0000000,0.0000000,0.0020393,0.0000000,0.0000000,0.0000000,0.0076036,0.0000000,0.0000000,0.0020393
57.7667570,1.0000000,,-0.9595230,-0.2816186,-0.0000132,0.0025595,0.0043787,-0.0025346,0.0003953,,,,2.1591840,-6.9269910,-21.3697929,0.0000000,0.0000000,0.0000000,0.0200000,0.0573587,0.0000000,0.0000000,0.0076444,0.0000000,0.0000000,0.0000000,0.0573587,0.0000000,0.0000000,0.0076444,0.0000000,0.0000000,0.0000000,0.0573587,0.0000000,0.0000000,0.0076444,0.0076444,0.0000000,0.0000000,0.0020448,0.0000000,0.0000000,0.0000000,0.0076444,0.0000000,0.0000000,0.0020448,0.0000000,0.0000000,0.0000000,0.0076444,0.0000000,0.0000000,0.0020448
57.7797810,1.3997000,,-0.9595230,-0.2816185,0.0000184,0.0025810,0.0012662,-0.0011910,-0.0019996,,,,2.1591840,-6.9269910,-21.3697929,0.0000000,0.0000000,0.0000000,0.0279940,0.0577867,0.0000000,0.0000000,0.0077017,0.0000000,0.0000000,0.0000000,0.0577867,0.0000000,0.0000000,0.0077017,0.0000000,0.0000000,0.0000000,0.0577867,0.0000000,0.0000000,0.0077017,0.0077017,0.0000000,0.0000000,0.0020525,0.0000000,0.0000000,0.0000000,0.0077017,0.0000000,0.0000000,0.0020525,0.0000000,0.0000000,0.0000000,0.0077017,0.0000000,0.0000000,0.0020525
57.7999030,1.0001000,,-0.9595230,-0.2816185,0.0000284,0.0025664,0.0004424,-0.0000843,-0.0019764,,,,2.1591840,-6.9269910,-21.3697929,0.0000000,0.0000000,0.0000000,0.0200020,0.0580948,0.0000000,0.0000000,0.0077429,0.0000000,0.0000000,0.0000000,0.0580948,0.0000000,0.0000000,0.0077429,0.0000000,0.0000000,0.0000000,0.0580948,0.0000000,0.0000000,0.0077429,0.0077429,0.0000000,0.0000000,0.0020579,0.0000000,0.0000000,0.0000000,0.0077429,0.0000000,0.0000000,0.0020579,0.0000000,0.0000000,0.0000000,0.0077429,0.0000000,0.0000000,0.0020579
57.8199130,1.0004500,,-0.9595231,-0.2816185,0.0000377,0.0025589,-0.0002061,-0.0027048,0.0014532,,,,2.1591840,-6.9269910,-21.3697929,0.0000000,0.0000000,0.0000000,0.0200090,0.0584046,0.0000000,0.0000000,0.0077841,0.0000000,0.0000000,0.0000000,0.0584046,0.0000000,0.0000000,0.0077841,0.0000000,0.0000000,0.0000000,0.0584046,0.0000000,0.0000000,0.0077841,0.0077841,0.0000000,0.0000000,0.0020634,0.0000000,0.0000000,0.0000000,0.0077841,0.0000000,0.0000000,0.0020634,0.0000000,0.0000000,0.0000000,0.0077841,0.0000000,0.0000000,0.0020634
57.8399260,0.9998500,,-0.9595230,-0.2816185,0.0000211,0.0025675,0.0033302,-0.0047322,0.0036563,,,,2.1591840,-6.9269910,-21.3697929,0.0000000,0.0000000,0.0000000,0.0199970,0.0587159,0.0000000,0.0000000,0.0078254,0.0000000,0.0000000,0.0000000,0.0587159,0.0000000,0.0000000,0.0078254,0.0000000,0.0000000,0.0000000,0.0587159,0.0000000,0.0000000,0.0078254,0.0078254,0.0000000,0.0000000,0.0020689,0.0000000,0.0000000,0.0000000,0.0078254,0.0000000,0.0000000,0.0020689,0.0000000,0.0000000,0.0000000,0.0078254,0.0000000,0.0000000,0.0020689
57.8557900,,1.0001000,-0.9595230,-0.2816185,0.0000211,0.0025675,,,,0.0000000,0.0000000,0.0000000,2.1591840,-6.9269910,-21.3697929,0.0000000,0.0000000,0.0000000,0.1000100,0.0571613,0.0000000,0.0000000,0.0076182,0.0000000,0.0000000,0.0000000,0.0571613,0.0000000,0.0000000,0.0076182,0.0000000,0.0000000,0.0000000,0.0571613,0.0000000,0.0000000,0.0076182,0.0076182,0.0000000,0.0000000,0.0020413,0.0000000,0.0000000,0.0000000,0.0076182,0.0000000,0.0000000,0.0020413,0.0000000,0.0000000,0.0000000,0.0076182,0.0000000,0.0000000,0.0020413
57.8681080,1.0002999,,-0.9595230,-0.2816186,-0.0000052,0.0025738,0.0021305,0.0001058,0.0062227,,,,2.1591840,-6.9269910,-21.3697929,0.0000000,0.0000000,0.0000000,0.0200060,0.0574662,0.0000000,0.0000000,0.0076591,0.0000000,0.0000000,0.0000000,0.0574662,0.0000000,0.0000000,0.0076591,0.0000000,0.0000000,0.0000000,0.0574662,0.0000000,0.0000000,0.0076591,0.0076591,0.0000000,0.0000000,0.0020468,0.0000000,0.0000000,0.0000000,0.0076591,0.0000000,0.0000000,0.0020468,0.0000000,0.0000000,0.0000000,0.0076591,0.0000000,0.0000000,0.0020468
57.8827580,1.1493001,,-0.9595229,-0.2816186,-0.0000220,0.0025953,0.0056658,0.0035319,0.0040879,,,,2.1591840,-6.9269910,-21.3697929,0.0000000,0.0000000,0.0000000,0.0229860,0.0578183,0.0000000,0.0000000,0.0077062,0.0000000,0.0000000,0.0000000,0.0578183,0.0000000,0.0000000,0.0077062,0.0000000,0.0000000,0.0000000,0.0578183,0.0000000,0.0000000,0.0077062,0.0077062,0.0000000,0.0000000,0.0020531,0.0000000,0.0000000,0.0000000,0.0077062,0.0000000,0.0000000,0.0020531,0.0000000,0.0000000,0.0000000,0.0077062,0.0000000,0.0000000,0.0020531
57.9041030,1.0501001,,-0.9595228,-0.2816186,-0.0000260,0.0026070,0.0076852,0.0047643,0.0052178,,,,2.1591840,-6.9269910,-21.3697929,0.0000000,0.0000000,0.0000000,0.0210020,0.0581420,0.0000000,0.0000000,0.0077494,0.0000000,0.0000000,0.0000000,0.0581420,0.0000000,0.0000000,0.0077494,0.0000000,0.0000000,0.0000000,0.0581420,0.0000000,0.0000000,0.0077494,0.0077494,0.0000000,0.0000000,0.0020588,0.0000000,0.0000000,0.0000000,0.0077494,0.0000000,0.0000000,0.0020588,0.0000000,0.0000000,0.0000000,0.0077494,0.0000000,0.0000000,0.0020588
57.9239330,1.0002501,,-0.9595228,-0.2816186,-0.0000169,0.0026187,0.0006535,-0.0026609,0.0065151,,,,2.1591840,-6.9269910,-21.3697929,0.0000000,0.0000000,0.0000000,0.0200050,0.0584520,0.0000000,0.0000000,0.0077906,0.0000000,0.0000000,0.0000000,0.0584520,0.0000000,0.0000000,0.0077906,0.0000000,0.0000000,0.0000000,0.0584520,0.0000000,0.0000000,0.0077906,0.0077906,0.0000000,0.0000000,0.0020643,0.0000000,0.0000000,0.0000000,0.0077906,0.0000000,0.0000000,0.0020643,0.0000000,0.0000000,0.0000000,0.0077906,0.0000000,0.0000000,0.0020643
57.9436950,0.9996500,,-0.9595228,-0.2816185,0.0000224,0.0026166,-0.0018095,-0.0000182,-0.0035784,,,,2.1591840,-6.9269910,-21.3697929,0.0000000,0.0000000,0.0000000,0.0199930,0.0587635,0.0000000,0.0000000,0.0078320,0.0000000,0.0000000,0.0000000,0.0587635,0.0000000,0.0000000,0.0078320,0.0000000,0.0000000,0.0000000,0.0587635,0.0000000,0.0000000,0.0078320,0.0078320,0.0000000,0.0000000,0.0020698,0.0000000,0.0000000,0.0000000,0.0078320,0.0000000,0.0000000,0.0020698,0.0000000,0.0000000,0.0000000,0.0078320,0.0000000,0.0000000,0.0020698
57.9602060,,0.9999200,-0.9595228,-0.2816185,0.0000224,0.0026166,,,,0.0000000,0.0000000,0.0000000,2.1591840,-6.9269910,-21.3697929,0.0000000,0.0000000,0.0000000,0.0999920,0.0572065,0.0000000,0.0000000,0.0076244,0.0000000,0.0000000,0.0000000,0.0572065,0.0000000,0.0000000,0.0076244,0.0000000,0.0000000,0.0000000,0.0572065,0.0000000,0.0000000,0.0076244,0.0076244,0.0000000,0.0000000,0.0020422,0.0000000,0.0000000,0.0000000,0.0076244,0.0000000,0.0000000,0.0020422,0.0000000,0.0000000,0.0000000,0.0076244,0.0000000,0.0000000,0.0020422
57.9727920,1.0003999,,-0.9595228,-0.2816184,0.0000503,0.0026200,-0.0088851,0.0003342,-0.0061837,,,,2.1591840,-6.9269910,-21.3697929,0.0000000,0.0000000,0.0000000,0.0200080,0.0575116,0.0000000,0.0000000,0.0076653,0.0000000,0.0000000,0.0000000,0.0575116,0.0000000,0.0000000,0.0076653,0.0000000,0.0000000,0.0000000,0.0575116,0.0000000,0.0000000,0.0076653,0.0076653,0.0000000,0.0000000,0.0020476,0.0000000,0.0000000,0.0000000,0.0076653,0.0000000,0.0000000,0.0020476,0.0000000,0.0000000,0.0000000,0.0076653,0.0000000,0.0000000,0.0020476
57.9855840,1.0996000,,-0.9595230,-0.2816184,0.0000668,0.0026027,-0.0072807,0.0036537,0.0044765,,,,2.1591840,-6.9269910,-21.3697929,0.0000000,0.0000000,0.0000000,0.0219920,0.0578487,0.0000000,0.0000000,0.0077104,0.0000000,0.0000000,0.0000000,0.0578487,0.0000000,0.0000000,0.0077104,0.0000000,0.0000000,0.0000000,0.0578487,0.0000000,0.0000000,0.0077104,0.0077104,0.0000000,0.0000000,0.0020537,0.0000000,0.0000000,0.0000000,0.0077104,0.0000000,0.0000000,0.0020537,0.0000000,0.0000000,0.0000000,0.0077104,0.0000000,0.0000000,0.0020537
58.0070190,1.0501500,,-0.9595187,-0.2816330,0.0000439,0.0025999,0.0105427,-0.0171551,-0.0236407,,,,2.1591840,-6.9269910,-21.3697929,0.0000000,0.0000000,0.0000000,0.0210030,0.0581726,0.0000000,0.0000000,0.0077536,0.0000000,0.0000000,0.0000000,0.0581726,0.0000000,0.0000000,0.0077536,0.0000000,0.0000000,0.0000000,0.0581726,0.0000000,0.0000000,0.0077536,0.0077536,0.0000000,0.0000000,0.0020594,0.0000000,0.0000000,0.0000000,0.0077536,0.0000000,0.0000000,0.0020594,0.0000000,0.0000000,0.0000000,0.0077536,0.0000000,0.0000000,0.0020594
58.0270930,1.0000501,,-0.9594760,-0.2817752,0.0000958,0.0029011,0.0003657,0.0116327,-0.0381951,,,,2.1591840,-6.9269910,-21.3697929,0.0000000,0.0000000,0.0000000,0.0200010,0.0584828,0.0000000,0.0000000,0.0077949,0.0000000,0.0000000,0.0000000,0.0584828,0.0000000,0.0000000,0.0077949,0.0000000,0.0000000,0.0000000,0.0584828,0.0000000,0.0000000,0.0077949,0.0077949,0.0000000,0.0000000,0.0020649,0.0000000,0.0000000,0.0000000,0.0077949,0.0000000,0.0000000,0.0020649,0.0000000,0.0000000,0.0000000,0.0077949,0.0000000,0.0000000,0.0020649
58.0469650,1.0000000,,-0.9594287,-0.2819297,0.0002358,0.0034236,-0.0042270,-0.0557147,-0.0113003,,,,2.1591840,-6.9269910,-21.3697929,0.0000000,0.0000000,0.0000000,0.0200000,0.0587946,0.0000000,0.0000000,0.0078362,0.0000000,0.0000000,0.0000000,0.0587946,0.0000000,0.0000000,0.0078362,0.0000000,0.0000000,0.0000000,0.0587946,0.0000000,0.0000000,0.0078362,0.0078362,0.0000000,0.0000000,0.0020704,0.0000000,0.0000000,0.0000000,0.0078362,0.0000000,0.0000000,0.0020704,0.0000000,0.0000000,0.0000000,0.0078362,0.0000000,0.0000000,0.0020704
58.0630490,,1.0200900,-0.9594287,-0.2819297,0.0002358,0.0034236,,,,0.0000000,0.0000000,0.0000000,2.1591840,-6.9269910,-21.3697929,0.0000000,0.0000000,0.0000000,0.1020090,0.0572359,0.0000000,0.0000000,0.0076285,0.0000000,0.0000000,0.0000000,0.0572359,0.0000000,0.0000000,0.0076285,0.0000000,0.0000000,0.0000000,0.0572359,0.0000000,0.0000000,0.0076285,0.0076285,0.0000000,0.0000000,0.0020427,0.0000000,0.0000000,0.0000000,0.0076285,0.0000000,0.0000000,0.0020427,0.0000000,0.0000000,0.0000000,0.0076285,0.0000000,0.0000000,0.0020427
58.0766560,1.0001501,,-0.9594228,-0.2819456,0.0002227,0.0037538,0.0496748,-0.0692850,-0.0032240,,,,2.1591840,-6.9269910,-21.3697929,0.0000000,0.0000000,0.0000000,0.0200030,0.0575410,0.0000000,0.0000000,0.0076694,0.0000000,0.0000000,0.0000000,0.0575410,0.0000000,0.0000000,0.0076694,0.0000000,0.0000000,0.0000000,0.0575410,0.0000000,0.0000000,0.0076694,0.0076694,0.0000000,0.0000000,0.0020482,0.0000000,0.0000000,0.0000000,0.0076694,0.0000000,0.0000000,0.0020482,0.0000000,0.0000000,0.0000000,0.0076694,0.0000000,0.0000000,0.0020482
58.0897820,1.1496500,,-0.9594423,-0.2818850,0.0002336,0.0032916,-0.0111199,0.0636012,-0.0047935,,,,2.1591840,-6.9269910,-21.3697929,0.0000000,0.0000000,0.0000000,0.0229930,0.0578937,0.0000000,0.0000000,0.0077166,0.0000000,0.0000000,0.0000000,0.0578937,0.0000000,0.0000000,0.0077166,0.0000000,0.0000000,0.0000000,0.0578937,0.0000000,0.0000000,0.0077166,0.0077166,0.0000000,0.0000000,0.0020545,0.0000000,0.0000000,0.0000000,0.0077166,0.0000000,0.0000000,0.0020545,0.0000000,0.0000000,0.0000000,0.0077166,0.0000000,0.0000000,0.0020545
58.1111350,1.0501001,,-0.9594569,-0.2818374,-0.0001432,0.0031050,-0.0652295,-0.0363451,0.0781620,,,,2.1591840,-6.9269910,-21.3697929,0.0000000,0.0000000,0.0000000,0.0210020,0.0582179,0.0000000,0.0000000,0.0077598,0.0000000,0.0000000,0.0000000,0.0582179,0.0000000,0.0000000,0.0077598,0.0000000,0.0000000,0.0000000,0.0582179,0.0000000,0.0000000,0.0077598,0.0077598,0.0000000,0.0000000,0.0020603,0.0000000,0.0000000,0.0000000,0.0077598,0.0000000,0.0000000,0.0020603,0.0000000,0.0000000,0.0000000,0.0077598,0.0000000,0.0000000,0.0020603
58.1311160,0.9999000,,-0.9594415,-0.2818878,-0.0003973,0.0032884,-0.1523810,-0.1544259,-0.1318250,,,,2.1591418,-6.9269814,-21.3697662,-0.0042306,0.0009318,0.0026470,0.0199980,0.0585282,0.0000000,0.0000000,0.0078010,0.0000000,0.0000000,0.0000000,0.0585282,0.0000000,0.0000000,0.0078010,0.0000000,0.0000000,0.0000000,0.0585282,0.0000000,0.0000000,0.0078010,0.0078010,0.0000000,0.0000000,0.0020657,0.0000000,0.0000000,0.0000000,0.0078010,0.0000000,0.0000000,0.0020657,0.0000000,0.0000000,0.0000000,0.0078010,0.0000000,0.0000000,0.0020657
58.1509180,1.0000000,,-0.9594321,-0.2819109,-0.0002590,0.0039436,-0.1093402,-0.2117497,-0.0842383,,,,2.1590159,-6.9269390,-21.3696957,-0.0083578,0.0032976,0.0043572,0.0200000,0.0588403,0.0000000,0.0000000,0.0078424,0.0000000,0.0000000,0.0000000,0.0588403,0.0000000,0.0000000,0.0078424,0.0000000,0.0000000,0.0000000,0.0588403,0.0000000,0.0000000,0.0078424,0.0078424,0.0000000,0.0000000,0.0020712,0.0000000,0.0000000,0.0000000,0.0078424,0.0000000,0.0000000,0.0020712,0.0000000,0.0000000,0.0000000,0.0078424,0.0000000,0.0000000,0.0020712
58.1669880,,0.9999100,-0.9594321,-0.2819109,-0.0002590,0.0039436,,,,-0.1112197,-0.0715341,-0.0003598,2.1560695,-6.9288383,-21.3697071,-0.0087505,0.0030445,0.0043556,0.0999910,0.0572792,0.0000000,0.0000000,0.0076343,0.0000000,0.0000000,0.0000000,0.0572792,0.0000000,0.0000000,0.0076343,0.0000000,0.0000000,0.0000000,0.0572792,0.0000000,0.0000000,0.0076343,0.0076343,0.0000000,0.0000000,0.0020435,0.0000000,0.0000000,0.0000000,0.0076343,0.0000000,0.0000000,0.0020435,0.0000000,0.0000000,0.0000000,0.0076343,0.0000000,0.0000000,0.0020435
58.1809500,1.0000501,,-0.9594176,-0.2819566,-0.0001137,0.0042309,-0.0371149,-0.3178347,-0.1561481,,,,2.1558540,-6.9287281,-21.3695889,-0.0128074,0.0079633,0.0075278,0.0200010,0.0575846,0.0000000,0.0000000,0.0076752,0.0000000,0.0000000,0.0000000,0.0575846,0.0000000,0.0000000,0.0076752,0.0000000,0.0000000,0.0000000,0.0575846,0.0000000,0.0000000,0.0076752,0.0076752,0.0000000,0.0000000,0.0020490,0.0000000,0.0000000,0.0000000,0.0076752,0.0000000,0.0000000,0.0020490,0.0000000,0.0000000,0.0000000,0.0076752,0.0000000,0.0000000,0.0020490
58.1936770,1.1499500,,-0.9594322,-0.2819104,-0.0003284,0.0039909,0.1927615,-0.1676759,0.4189886,,,,2.1555781,-6.9284792,-21.3695259,-0.0111805,0.0136804,-0.0020666,0.0229990,0.0579376,0.0000000,0.0000000,0.0077224,0.0000000,0.0000000,0.0000000,0.0579376,0.0000000,0.0000000,0.0077224,0.0000000,0.0000000,0.0000000,0.0579376,0.0000000,0.0000000,0.0077224,0.0077224,0.0000000,0.0000000,0.0020553,0.0000000,0.0000000,0.0000000,0.0077224,0.0000000,0.0000000,0.0020553,0.0000000,0.0000000,0.0000000,0.0077224,0.0000000,0.0000000,0.0020553
58.2150060,1.0503500,,-0.9594535,-0.2818471,-0.0006151,0.0031497,0.0287080,-0.1470551,0.0071017,,,,2.1555781,-6.9284792,-21.3695259,0.0000000,0.0000000,0.0000000,0.0210070,0.0582621,0.0000000,0.0000000,0.0077657,0.0000000,0.0000000,0.0000000,0.0582621,0.0000000,0.0000000,0.0077657,0.0000000,0.0000000,0.0000000,0.0582621,0.0000000,0.0000000,0.0077657,0.0077657,0.0000000,0.0000000,0.0020610,0.0000000,0.0000000,0.0000000,0.0077657,0.0000000,0.0000000,0.0020610,0.0000000,0.0000000,0.0000000,0.0077657,0.0000000,0.0000000,0.0020610
58.2350770,0.9997500,,-0.9594565,-0.2818441,-0.0009462,0.0021367,-0.0152633,-0.6667969,0.2174181,,,,2.1555035,-6.9283686,-21.3695698,-0.0074648,0.0110693,-0.0043006,0.0199950,0.0585726,0.0000000,0.0000000,0.0078069,0.0000000,0.0000000,0.0000000,0.0585726,0.0000000,0.0000000,0.0078069,0.0000000,0.0000000,0.0000000,0.0585726,0.0000000,0.0000000,0.0078069,0.0078069,0.0000000,0.0000000,0.0020665,0.0000000,0.0000000,0.0000000,0.0078069,0.0000000,0.0000000,0.0020665,0.0000000,0.0000000,0.0000000,0.0078069,0.0000000,0.0000000,0.0020665
58.2566030,,1.0099900,-0.9594625,-0.2818280,-0.0009306,0.0016833,,,,-0.2751556,-0.1954163,-0.0010737,2.1482506,-6.9335427,-21.3696022,-0.0084315,0.0103797,-0.0043048,0.1009990,0.0570255,0.0000000,0.0000000,0.0076007,0.0000000,0.0000000,0.0000000,0.0570255,0.0000000,0.0000000,0.0076007,0.0000000,0.0000000,0.0000000,0.0570255,0.0000000,0.0000000,0.0076007,0.0076007,0.0000000,0.0000000,0.0020390,0.0000000,0.0000000,0.0000000,0.0076007,0.0000000,0.0000000,0.0020390,0.0000000,0.0000000,0.0000000,0.0076007,0.0000000,0.0000000,0.0020390
58.2707700,0.9999000,,-0.9594625,-0.2818280,-0.0009306,0.0016833,-0.0369285,-0.7350632,0.1768243,,,,2.1479962,-6.9332156,-21.3697224,-0.0169996,0.0223582,-0.0078032,0.0199980,0.0573295,0.0000000,0.0000000,0.0076416,0.0000000,0.0000000,0.0000000,0.0573295,0.0000000,0.0000000,0.0076416,0.0000000,0.0000000,0.0000000,0.0573295,0.0000000,0.0000000,0.0076416,0.0076416,0.0000000,0.0000000,0.0020445,0.0000000,0.0000000,0.0000000,0.0076416,0.0000000,0.0000000,0.0020445,0.0000000,0.0000000,0.0000000,0.0076416,0.0000000,0.0000000,0.0020445
58.2837580,1.4500000,,-0.9594569,-0.2818415,-0.0006995,0.0024778,-0.0330135,-0.1965492,-0.0180408,,,,2.1479962,-6.9332156,-21.3697224,0.0000000,0.0000000,0.0000000,0.0290000,0.0577727,0.0000000,0.0000000,0.0077009,0.0000000,0.0000000,0.0000000,0.0577727,0.0000000,0.0000000,0.0077009,0.0000000,0.0000000,0.0000000,0.0577727,0.0000000,0.0000000,0.0077009,0.0077009,0.0000000,0.0000000,0.0020525,0.0000000,0.0000000,0.0000000,0.0077009,0.0000000,0.0000000,0.0020525,0.0000000,0.0000000,0.0000000,0.0077009,0.0000000,0.0000000,0.0020525
58.3052050,1.0000000,,-0.9594789,-0.2817608,-0.0006486,0.0031291,-0.0742918,-0.3267445,0.1452688,,,,2.1479483,-6.9331684,-21.3697510,-0.0047848,0.0047123,-0.0028729,0.0200000,0.0580807,0.0000000,0.0000000,0.0077420,0.0000000,0.0000000,0.0000000,0.0580807,0.0000000,0.0000000,0.0077420,0.0000000,0.0000000,0.0000000,0.0580807,0.0000000,0.0000000,0.0077420,0.0077420,0.0000000,0.0000000,0.0020580,0.0000000,0.0000000,0.0000000,0.0077420,0.0000000,0.0000000,0.0020580,0.0000000,0.0000000,0.0000000,0.0077420,0.0000000,0.0000000,0.0020580
58.3250470,1.0500500,,-0.9594601,-0.2818208,-0.0004670,0.0035279,-0.1122497,-0.2502558,0.1863887,,,,2.1477971,-6.9330363,-21.3698521,-0.0096142,0.0078856,-0.0067598,0.0210010,0.0584059,0.0000000,0.0000000,0.0077853,0.0000000,0.0000000,0.0000000,0.0584059,0.0000000,0.0000000,0.0077853,0.0000000,0.0000000,0.0000000,0.0584059,0.0000000,0.0000000,0.0077853,0.0077853,0.0000000,0.0000000,0.0020637,0.0000000,0.0000000,0.0000000,0.0077853,0.0000000,0.0000000,0.0020637,0.0000000,0.0000000,0.0000000,0.0077853,0.0000000,0.0000000,0.0020637
58.3450550,1.0004500,,-0.9595008,-0.2816834,-0.0003890,0.0034953,-0.0534851,-0.0198346,0.1293195,,,,2.1477971,-6.9330363,-21.3698521,0.0000000,0.0000000,0.0000000,0.0200090,0.0587175,0.0000000,0.0000000,0.0078267,0.0000000,0.0000000,0.0000000,0.0587175,0.0000000,0.0000000,0.0078267,0.0000000,0.0000000,0.0000000,0.0587175,0.0000000,0.0000000,0.0078267,0.0078267,0.0000000,0.0000000,0.0020692,0.0000000,0.0000000,0.0000000,0.0078267,0.0000000,0.0000000,0.0020692,0.0000000,0.0000000,0.0000000,0.0078267,0.0000000,0.0000000,0.0020692
58.3611180,,1.0000700,-0.9595008,-0.2816834,-0.0003890,0.0033706,,,,-0.5140967,-0.3491731,-0.0017901,2.1341972,-6.9422946,-21.3698921,-0.0018128,-0.0012341,-0.0000054,0.1000070,0.0571628,0.0000000,0.0000000,0.0076194,0.0000000,0.0000000,0.0000000,0.0571628,0.0000000,0.0000000,0.0076194,0.0000000,0.0000000,0.0000000,0.0571628,0.0000000,0.0000000,0.0076194,0.0076194,0.0000000,0.0000000,0.0020416,0.0000000,0.0000000,0.0000000,0.0076194,0.0000000,0.0000000,0.0020416,0.0000000,0.0000000,0.0000000,0.0076194,0.0000000,0.0000000,0.0020416
58.3757810,0.9995500,,-0.9595033,-0.2816766,-0.0003192,0.0033706,0.0433945,0.0126657,0.3647010,,,,2.1341696,-6.9423161,-21.3699646,-0.0009554,-0.0009297,-0.0072954,0.0199910,0.0574674,0.0000000,0.0000000,0.0076603,0.0000000,0.0000000,0.0000000,0.0574674,0.0000000,0.0000000,0.0076603,0.0000000,0.0000000,0.0000000,0.0574674,0.0000000,0.0000000,0.0076603,0.0076603,0.0000000,0.0000000,0.0020471,0.0000000,0.0000000,0.0000000,0.0076603,0.0000000,0.0000000,0.0020471,0.0000000,0.0000000,0.0000000,0.0076603,0.0000000,0.0000000,0.0020471
58.3887630,1.1999500,,-0.9595090,-0.2816480,0.0003046,0.0039914,0.1086952,-0.0087505,0.1007923,,,,2.1341696,-6.9423161,-21.3699646,0.0000000,0.0000000,0.0000000,0.0239990,0.0578351,0.0000000,0.0000000,0.0077095,0.0000000,0.0000000,0.0000000,0.0578351,0.0000000,0.0000000,0.0077095,0.0000000,0.0000000,0.0000000,0.0578351,0.0000000,0.0000000,0.0077095,0.0077095,0.0000000,0.0000000,0.0020536,0.0000000,0.0000000,0.0000000,0.0077095,0.0000000,0.0000000,0.0020536,0.0000000,0.0000000,0.0000000,0.0077095,0.0000000,0.0000000,0.0020536
58.4089100,1.0000000,,-0.9595094,-0.2816441,0.0007978,0.0041264,0.0333973,-0.0555837,-0.0108984,,,,2.1341696,-6.9423161,-21.3699646,0.0000000,0.0000000,0.0000000,0.0200000,0.0581435,0.0000000,0.0000000,0.0077506,0.0000000,0.0000000,0.0000000,0.0581435,0.0000000,0.0000000,0.0077506,0.0000000,0.0000000,0.0000000,0.0581435,0.0000000,0.0000000,0.0077506,0.0077506,0.0000000,0.0000000,0.0020591,0.0000000,0.0000000,0.0000000,0.0077506,0.0000000,0.0000000,0.0020591,0.0000000,0.0000000,0.0000000,0.0077506,0.0000000,0.0000000,0.0020591
58.4299060,1.0501001,,-0.9595159,-0.2816127,0.0012188,0.0046031,0.0812967,-0.0810450,0.0487271,,,,2.1341696,-6.9423161,-21.3699646,0.0000000,0.0000000,0.0000000,0.0210020,0.0584691,0.0000000,0.0000000,0.0077939,0.0000000,0.0000000,0.0000000,0.0584691,0.0000000,0.0000000,0.0077939,0.0000000,0.0000000,0.0000000,0.0584691,0.0000000,0.0000000,0.0077939,0.0077939,0.0000000,0.0000000,0.0020649,0.0000000,0.0000000,0.0000000,0.0077939,0.0000000,0.0000000,0.0020649,0.0000000,0.0000000,0.0000000,0.0077939,0.0000000,0.0000000,0.0020649
58.4499300,1.0005001,,-0.9595172,-0.2816020,0.0012495,0.0049940,0.1214208,-0.0262021,-0.0171709,,,,2.1341696,-6.9423161,-21.3699646,0.0000000,0.0000000,0.0000000,0.0200100,0.0587810,0.0000000,0.0000000,0.0078353,0.0000000,0.0000000,0.0000000,0.0587810,0.0000000,0.0000000,0.0078353,0.0000000,0.0000000,0.0000000,0.0587810,0.0000000,0.0000000,0.0078353,0.0078353,0.0000000,0.0000000,0.0020704,0.0000000,0.0000000,0.0000000,0.0078353,0.0000000,0.0000000,0.0020704,0.0000000,0.0000000,0.0000000,0.0078353,0.0000000,0.0000000,0.0020704
58.4657560,,1.0199499,-0.9595172,-0.2816020,0.0012495,0.0049940,,,,-0.4487996,-0.2886341,-0.0002246,2.1222749,-6.9499660,-21.3699684,-0.0015855,-0.0010197,-0.0000005,0.1019950,0.0572230,0.0000000,0.0000000,0.0076276,0.0000000,0.0000000,0.0000000,0.0572230,0.0000000,0.0000000,0.0076276,0.0000000,0.0000000,0.0000000,0.0572230,0.0000000,0.0000000,0.0076276,0.0076276,0.0000000,0.0000000,0.0020427,0.0000000,0.0000000,0.0000000,0.0076276,0.0000000,0.0000000,0.0020427,0.0000000,0.0000000,0.0000000,0.0076276,0.0000000,0.0000000,0.0020427
58.4795870,0.9997500,,-0.9595038,-0.2816505,0.0013032,0.0048364,0.0736346,-0.0277571,0.0765968,,,,2.1222749,-6.9499660,-21.3699684,0.0000000,0.0000000,0.0000000,0.0199950,0.0575280,0.0000000,0.0000000,0.0076685,0.0000000,0.0000000,0.0000000,0.0575280,0.0000000,0.0000000,0.0076685,0.0000000,0.0000000,0.0000000,0.0575280,0.0000000,0.0000000,0.0076685,0.0076685,0.0000000,0.0000000,0.0020482,0.0000000,0.0000000,0.0000000,0.0076685,0.0000000,0.0000000,0.0020482,0.0000000,0.0000000,0.0000000,0.0076685,0.0000000,0.0000000,0.0020482
58.4931430,1.1496500,,-0.9595316,-0.2815490,0.0009287,0.0052809,-0.0804694,0.0303490,-0.0264294,,,,2.1222749,-6.9499660,-21.3699684,0.0000000,0.0000000,0.0000000,0.0229930,0.0578807,0.0000000,0.0000000,0.0077157,0.0000000,0.0000000,0.0000000,0.0578807,0.0000000,0.0000000,0.0077157,0.0000000,0.0000000,0.0000000,0.0578807,0.0000000,0.0000000,0.0077157,0.0077157,0.0000000,0.0000000,0.0020545,0.0000000,0.0000000,0.0000000,0.0077157,0.0000000,0.0000000,0.0020545,0.0000000,0.0000000,0.0000000,0.0077157,0.0000000,0.0000000,0.0020545
58.5129040,1.0003500,,-0.9595649,-0.2814361,0.0008026,0.0052880,-0.0630466,-0.1814579,0.0861276,,,,2.1222749,-6.9499660,-21.3699684,0.0000000,0.0000000,0.0000000,0.0200070,0.0581894,0.0000000,0.0000000,0.0077568,0.0000000,0.0000000,0.0000000,0.0581894,0.0000000,0.0000000,0.0077568,0.0000000,0.0000000,0.0000000,0.0581894,0.0000000,0.0000000,0.0077568,0.0077568,0.0000000,0.0000000,0.0020600,0.0000000,0.0000000,0.0000000,0.0077568,0.0000000,0.0000000,0.0020600,0.0000000,0.0000000,0.0000000,0.0077568,0.0000000,0.0000000,0.0020600
58.5326110,0.9998000,,-0.9596027,-0.2813046,0.0009462,0.0054078,-0.0764604,-0.2113344,0.0957677,,,,2.1222749,-6.9499660,-21.3699684,0.0000000,0.0000000,0.0000000,0.0199960,0.0584996,0.0000000,0.0000000,0.0077981,0.0000000,0.0000000,0.0000000,0.0584996,0.0000000,0.0000000,0.0077981,0.0000000,0.0000000,0.0000000,0.0584996,0.0000000,0.0000000,0.0077981,0.0077981,0.0000000,0.0000000,0.0020654,0.0000000,0.0000000,0.0000000,0.0077981,0.0000000,0.0000000,0.0020654,0.0000000,0.0000000,0.0000000,0.0077981,0.0000000,0.0000000,0.0020654
58.5536270,1.0500000,,-0.9596369,-0.2811916,0.0009003,0.0052211,-0.0300362,-0.1015702,0.0385836,,,,2.1222749,-6.9499660,-21.3699684,0.0000000,0.0000000,0.0000000,0.0210000,0.0588271,0.0000000,0.0000000,0.0078415,0.0000000,0.0000000,0.0000000,0.0588271,0.0000000,0.0000000,0.0078415,0.0000000,0.0000000,0.0000000,0.0588271,0.0000000,0.0000000,0.0078415,0.0078415,0.0000000,0.0000000,0.0020712,0.0000000,0.0000000,0.0000000,0.0078415,0.0000000,0.0000000,0.0020712,0.0000000,0.0000000,0.0000000,0.0078415,0.0000000,0.0000000,0.0020712
58.5699000,,1.0201200,-0.9596369,-0.2811916,0.0009003,0.0052211,,,,-0.2321375,-0.1765426,-0.0005970,2.1161175,-6.9546490,-21.3699837,-0.0008208,-0.0006242,-0.0000021,0.1020120,0.0572667,0.0000000,0.0000000,0.0076335,0.0000000,0.0000000,0.0000000,0.0572667,0.0000000,0.0000000,0.0076335,0.0000000,0.0000000,0.0000000,0.0572667,0.0000000,0.0000000,0.0076335,0.0076335,0.0000000,0.0000000,0.0020435,0.0000000,0.0000000,0.0000000,0.0076335,0.0000000,0.0000000,0.0020435,0.0000000,0.0000000,0.0000000,0.0076335,0.0000000,0.0000000,0.0020435
58.5833240,1.0999000,,-0.9596716,-0.2810832,0.0007303,0.0046468,0.0029338,0.0707130,0.0229387,,,,2.1161175,-6.9546490,-21.3699837,0.0000000,0.0000000,0.0000000,0.0219980,0.0576026,0.0000000,0.0000000,0.0076785,0.0000000,0.0000000,0.0000000,0.0576026,0.0000000,0.0000000,0.0076785,0.0000000,0.0000000,0.0000000,0.0576026,0.0000000,0.0000000,0.0076785,0.0076785,0.0000000,0.0000000,0.0020495,0.0000000,0.0000000,0.0000000,0.0076785,0.0000000,0.0000000,0.0020495,0.0000000,0.0000000,0.0000000,0.0076785,0.0000000,0.0000000,0.0020495
58.5969400,1.0502501,,-0.9596751,-0.2810782,0.0008296,0.0041876,0.0418417,0.1685962,-0.1286750,,,,2.1161175,-6.9546490,-21.3699837,0.0000000,0.0000000,0.0000000,0.0210050,0.0579252,0.0000000,0.0000000,0.0077216,0.0000000,0.0000000,0.0000000,0.0579252,0.0000000,0.0000000,0.0077216,0.0000000,0.0000000,0.0000000,0.0579252,0.0000000,0.0000000,0.0077216,0.0077216,0.0000000,0.0000000,0.0020553,0.0000000,0.0000000,0.0000000,0.0077216,0.0000000,0.0000000,0.0020553,0.0000000,0.0000000,0.0000000,0.0077216,0.0000000,0.0000000,0.0020553
58.6166760,1.0001501,,-0.9596934,-0.2810196,0.0009112,0.0039182,0.0162135,0.0329065,0.0474713,,,,2.1161175,-6.9546490,-21.3699837,0.0000000,0.0000000,0.0000000,0.0200030,0.0582341,0.0000000,0.0000000,0.0077628,0.0000000,0.0000000,0.0000000,0.0582341,0.0000000,0.0000000,0.0077628,0.0000000,0.0000000,0.0000000,0.0582341,0.0000000,0.0000000,0.0077628,0.0077628,0.0000000,0.0000000,0.0020608,0.0000000,0.0000000,0.0000000,0.0077628,0.0000000,0.0000000,0.0020608,0.0000000,0.0000000,0.0000000,0.0077628,0.0000000,0.0000000,0.0020608
58.6377660,1.0497000,,-0.9597084,-0.2809722,0.0013012,0.0034899,-0.0079684,-0.1085467,0.0793921,,,,2.1161175,-6.9546490,-21.3699837,0.0000000,0.0000000,0.0000000,0.0209940,0.0585600,0.0000000,0.0000000,0.0078061,0.0000000,0.0000000,0.0000000,0.0585600,0.0000000,0.0000000,0.0078061,0.0000000,0.0000000,0.0000000,0.0585600,0.0000000,0.0000000,0.0078061,0.0078061,0.0000000,0.0000000,0.0020665,0.0000000,0.0000000,0.0000000,0.0078061,0.0000000,0.0000000,0.0020665,0.0000000,0.0000000,0.0000000,0.0078061,0.0000000,0.0000000,0.0020665
58.6613400,,1.0099300,-0.9597454,-0.2808511,0.0012595,0.0030549,,,,-0.3190698,-0.2048970,0.0002000,2.1076915,-6.9600601,-21.3699780,0.0000000,0.0000000,0.0000000,0.1009930,0.0570136,0.0000000,0.0000000,0.0076000,0.0000000,0.0000000,0.0000000,0.0570136,0.0000000,0.0000000,0.0076000,0.0000000,0.0000000,0.0000000,0.0570136,0.0000000,0.0000000,0.0076000,0.0076000,0.0000000,0.0000000,0.0020390,0.0000000,0.0000000,0.0000000,0.0076000,0.0000000,0.0000000,0.0020390,0.0000000,0.0000000,0.0000000,0.0076000,0.0000000,0.0000000,0.0020390
58.6747270,1.0998499,,-0.9597454,-0.2808511,0.0012595,0.0030549,-0.0728853,0.1265662,0.0299228,,,,2.1076915,-6.9600601,-21.3699780,0.0000000,0.0000000,0.0000000,0.0219970,0.0573479,0.0000000,0.0000000,0.0076449,0.0000000,0.0000000,0.0000000,0.0573479,0.0000000,0.0000000,0.0076449,0.0000000,0.0000000,0.0000000,0.0573479,0.0000000,0.0000000,0.0076449,0.0076449,0.0000000,0.0000000,0.0020451,0.0000000,0.0000000,0.0000000,0.0076449,0.0000000,0.0000000,0.0020451,0.0000000,0.0000000,0.0000000,0.0076449,0.0000000,0.0000000,0.0020451
58.6881530,1.4000001,,-0.9597876,-0.2807096,0.0009871,0.0029301,-0.0289734,0.1203815,-0.0131224,,,,2.1076915,-6.9600601,-21.3699780,0.0000000,0.0000000,0.0000000,0.0280000,0.0577760,0.0000000,0.0000000,0.0077022,0.0000000,0.0000000,0.0000000,0.0577760,0.0000000,0.0000000,0.0077022,0.0000000,0.0000000,0.0000000,0.0577760,0.0000000,0.0000000,0.0077022,0.0077022,0.0000000,0.0000000,0.0020527,0.0000000,0.0000000,0.0000000,0.0077022,0.0000000,0.0000000,0.0020527,0.0000000,0.0000000,0.0000000,0.0077022,0.0000000,0.0000000,0.0020527
58.7092520,1.0003999,,-0.9598206,-0.2806009,0.0007975,0.0025611,-0.1317047,0.1640344,0.0078431,,,,2.1076915,-6.9600601,-21.3699780,0.0000000,0.0000000,0.0000000,0.0200080,0.0580842,0.0000000,0.0000000,0.0077434,0.0000000,0.0000000,0.0000000,0.0580842,0.0000000,0.0000000,0.0077434,0.0000000,0.0000000,0.0000000,0.0580842,0.0000000,0.0000000,0.0077434,0.0077434,0.0000000,0.0000000,0.0020582,0.0000000,0.0000000,0.0000000,0.0077434,0.0000000,0.0000000,0.0020582,0.0000000,0.0000000,0.0000000,0.0077434,0.0000000,0.0000000,0.0020582
58.7301760,1.0500500,,-0.9598563,-0.2804847,0.0004361,0.0017231,-0.0806763,0.0079434,0.1071930,,,,2.1076915,-6.9600601,-21.3699780,0.0000000,0.0000000,0.0000000,0.0210010,0.0584095,0.0000000,0.0000000,0.0077866,0.0000000,0.0000000,0.0000000,0.0584095,0.0000000,0.0000000,0.0077866,0.0000000,0.0000000,0.0000000,0.0584095,0.0000000,0.0000000,0.0077866,0.0077866,0.0000000,0.0000000,0.0020640,0.0000000,0.0000000,0.0000000,0.0077866,0.0000000,0.0000000,0.0020640,0.0000000,0.0000000,0.0000000,0.0077866,0.0000000,0.0000000,0.0020640
58.7489310,0.9998500,,-0.9598701,-0.2804393,0.0002161,0.0015835,-0.0634476,0.1369521,0.0799637,,,,2.1076915,-6.9600601,-21.3699780,0.0000000,0.0000000,0.0000000,0.0199970,0.0587209,0.0000000,0.0000000,0.0078280,0.0000000,0.0000000,0.0000000,0.0587209,0.0000000,0.0000000,0.0078280,0.0000000,0.0000000,0.0000000,0.0587209,0.0000000,0.0000000,0.0078280,0.0078280,0.0000000,0.0000000,0.0020695,0.0000000,0.0000000,0.0000000,0.0078280,0.0000000,0.0000000,0.0020695,0.0000000,0.0000000,0.0000000,0.0078280,0.0000000,0.0000000,0.0020695
58.7637930,,1.0000900,-0.9598701,-0.2804393,0.0002161,0.0015835,,,,-0.0105738,0.0024644,0.0000210,2.1074116,-6.9599948,-21.3699780,-0.0000373,0.0000087,0.0000001,0.1000090,0.0571661,0.0000000,0.0000000,0.0076207,0.0000000,0.0000000,0.0000000,0.0571661,0.0000000,0.0000000,0.0076207,0.0000000,0.0000000,0.0000000,0.0571661,0.0000000,0.0000000,0.0076207,0.0076207,0.0000000,0.0000000,0.0020418,0.0000000,0.0000000,0.0000000,0.0076207,0.0000000,0.0000000,0.0020418,0.0000000,0.0000000,0.0000000,0.0076207,0.0000000,0.0000000,0.0020418
58.7774550,0.9997500,,-0.9598910,-0.2803664,-0.0000524,0.0018531,-0.0716866,-0.0069634,0.0377846,,,,2.1074116,-6.9599948,-21.3699780,0.0000000,0.0000000,0.0000000,0.0199950,0.0574708,0.0000000,0.0000000,0.0076616,0.0000000,0.0000000,0.0000000,0.0574708,0.0000000,0.0000000,0.0076616,0.0000000,0.0000000,0.0000000,0.0574708,0.0000000,0.0000000,0.0076616,0.0076616,0.0000000,0.0000000,0.0020473,0.0000000,0.0000000,0.0000000,0.0076616,0.0000000,0.0000000,0.0020473,0.0000000,0.0000000,0.0000000,0.0076616,0.0000000,0.0000000,0.0020473
58.7907440,1.0999500,,-0.9598839,-0.2803895,-0.0002746,0.0020409,0.0026089,0.0168354,-0.0240765,,,,2.1074116,-6.9599948,-21.3699780,0.0000000,0.0000000,0.0000000,0.0219990,0.0578079,0.0000000,0.0000000,0.0077067,0.0000000,0.0000000,0.0000000,0.0578079,0.0000000,0.0000000,0.0077067,0.0000000,0.0000000,0.0000000,0.0578079,0.0000000,0.0000000,0.0077067,0.0077067,0.0000000,0.0000000,0.0020534,0.0000000,0.0000000,0.0000000,0.0077067,0.0000000,0.0000000,0.0020534,0.0000000,0.0000000,0.0000000,0.0077067,0.0000000,0.0000000,0.0020534
58.8109630,1.0001000,,-0.9599003,-0.2803329,-0.0004155,0.0021526,0.0274809,-0.0791601,0.0370340,,,,2.1074116,-6.9599948,-21.3699780,0.0000000,0.0000000,0.0000000,0.0200020,0.0581162,0.0000000,0.0000000,0.0077478,0.0000000,0.0000000,0.0000000,0.0581162,0.0000000,0.0000000,0.0077478,0.0000000,0.0000000,0.0000000,0.0581162,0.0000000,0.0000000,0.0077478,0.0077478,0.0000000,0.0000000,0.0020588,0.0000000,0.0000000,0.0000000,0.0077478,0.0000000,0.0000000,0.0020588,0.0000000,0.0000000,0.0000000,0.0077478,0.0000000,0.0000000,0.0020588
58.8309880,0.9999000,,-0.9599122,-0.2802929,-0.0004366,0.0020677,0.0129928,0.0801175,0.1838002,,,,2.1074116,-6.9599948,-21.3699780,0.0000000,0.0000000,0.0000000,0.0199980,0.0584261,0.0000000,0.0000000,0.0077890,0.0000000,0.0000000,0.0000000,0.0584261,0.0000000,0.0000000,0.0077890,0.0000000,0.0000000,0.0000000,0.0584261,0.0000000,0.0000000,0.0077890,0.0077890,0.0000000,0.0000000,0.0020643,0.0000000,0.0000000,0.0000000,0.0077890,0.0000000,0.0000000,0.0020643,0.0000000,0.0000000,0.0000000,0.0077890,0.0000000,0.0000000,0.0020643
58.8532270,1.0504000,,-0.9599226,-0.2802536,-0.0003960,0.0025031,0.0055809,-0.0453523,0.1788065,,,,2.1074116,-6.9599948,-21.3699780,0.0000000,0.0000000,0.0000000,0.0210080,0.0587533,0.0000000,0.0000000,0.0078325,0.0000000,0.0000000,0.0000000,0.0587533,0.0000000,0.0000000,0.0078325,0.0000000,0.0000000,0.0000000,0.0587533,0.0000000,0.0000000,0.0078325,0.0078325,0.0000000,0.0000000,0.0020701,0.0000000,0.0000000,0.0000000,0.0078325,0.0000000,0.0000000,0.0020701,0.0000000,0.0000000,0.0000000,0.0078325,0.0000000,0.0000000,0.0020701
58.8689990,,1.0199300,-0.9599226,-0.2802536,-0.0003960,0.0028152,,,,-0.2535563,-0.1524349,-0.0006034,2.1006942,-6.9640331,-21.3699932,-0.0008955,-0.0005384,-0.0000021,0.1019930,0.0571968,0.0000000,0.0000000,0.0076250,0.0000000,0.0000000,0.0000000,0.0571968,0.0000000,0.0000000,0.0076250,0.0000000,0.0000000,0.0000000,0.0571968,0.0000000,0.0000000,0.0076250,0.0076249,0.0000000,0.0000000,0.0020424,0.0000000,0.0000000,0.0000000,0.0076249,0.0000000,0.0000000,0.0020424,0.0000000,0.0000000,0.0000000,0.0076249,0.0000000,0.0000000,0.0020424
58.8828650,1.0002000,,-0.9599259,-0.2802392,-0.0002834,0.0028152,-0.0063038,-0.0097062,0.1836339,,,,2.1006942,-6.9640331,-21.3699932,0.0000000,0.0000000,0.0000000,0.0200040,0.0575019,0.0000000,0.0000000,0.0076659,0.0000000,0.0000000,0.0000000,0.0575019,0.0000000,0.0000000,0.0076659,0.0000000,0.0000000,0.0000000,0.0575019,0.0000000,0.0000000,0.0076659,0.0076659,0.0000000,0.0000000,0.0020479,0.0000000,0.0000000,0.0000000,0.0076659,0.0000000,0.0000000,0.0020479,0.0000000,0.0000000,0.0000000,0.0076659,0.0000000,0.0000000,0.0020479
58.8958320,1.1994500,,-0.9599214,-0.2802501,-0.0002211,0.0032274,-0.0199442,0.0276558,0.1484500,,,,2.1006942,-6.9640331,-21.3699932,0.0000000,0.0000000,0.0000000,0.0239890,0.0578697,0.0000000,0.0000000,0.0077151,0.0000000,0.0000000,0.0000000,0.0578697,0.0000000,0.0000000,0.0077151,0.0000000,0.0000000,0.0000000,0.0578697,0.0000000,0.0000000,0.0077151,0.0077151,0.0000000,0.0000000,0.0020545,0.0000000,0.0000000,0.0000000,0.0077151,0.0000000,0.0000000,0.0020545,0.0000000,0.0000000,0.0000000,0.0077151,0.0000000,0.0000000,0.0020545
58.9167590,1.0500500,,-0.9599181,-0.2802581,-0.0001317,0.0035118,0.0038218,0.0731312,0.1831041,,,,2.1006942,-6.9640331,-21.3699932,0.0000000,0.0000000,0.0000000,0.0210010,0.0581937,0.0000000,0.0000000,0.0077583,0.0000000,0.0000000,0.0000000,0.0581937,0.0000000,0.0000000,0.0077583,0.0000000,0.0000000,0.0000000,0.0581937,0.0000000,0.0000000,0.0077583,0.0077583,0.0000000,0.0000000,0.0020602,0.0000000,0.0000000,0.0000000,0.0077583,0.0000000,0.0000000,0.0020602,0.0000000,0.0000000,0.0000000,0.0077583,0.0000000,0.0000000,0.0020602
58.9381520,1.0506500,,-0.9599106,-0.2802715,-0.0000656,0.0043140,-0.1047404,0.0314691,0.1579354,,,,2.1006942,-6.9640331,-21.3699932,0.0000000,0.0000000,0.0000000,0.0210130,0.0585197,0.0000000,0.0000000,0.0078016,0.0000000,0.0000000,0.0000000,0.0585197,0.0000000,0.0000000,0.0078016,0.0000000,0.0000000,0.0000000,0.0585197,0.0000000,0.0000000,0.0078016,0.0078016,0.0000000,0.0000000,0.0020660,0.0000000,0.0000000,0.0000000,0.0078016,0.0000000,0.0000000,0.0020660,0.0000000,0.0000000,0.0000000,0.0078016,0.0000000,0.0000000,0.0020660
58.9577670,0.9996500,,-0.9599065,-0.2802861,0.0001121,0.0043314,-0.0950567,-0.0014926,0.0108372,,,,2.1006942,-6.9640331,-21.3699932,0.0000000,0.0000000,0.0000000,0.0199930,0.0588317,0.0000000,0.0000000,0.0078430,0.0000000,0.0000000,0.0000000,0.0588317,0.0000000,0.0000000,0.0078430,0.0000000,0.0000000,0.0000000,0.0588317,0.0000000,0.0000000,0.0078430,0.0078430,0.0000000,0.0000000,0.0020715,0.0000000,0.0000000,0.0000000,0.0078430,0.0000000,0.0000000,0.0020715,0.0000000,0.0000000,0.0000000,0.0078430,0.0000000,0.0000000,0.0020715
58.9737410,,0.9999700,-0.9599065,-0.2802861,0.0001121,0.0043314,,,,-0.0247406,-0.0156062,-0.0000634,2.1000378,-6.9644470,-21.3699951,-0.0000875,-0.0000552,-0.0000002,0.0999970,0.0572711,0.0000000,0.0000000,0.0076349,0.0000000,0.0000000,0.0000000,0.0572711,0.0000000,0.0000000,0.0076349,0.0000000,0.0000000,0.0000000,0.0572711,0.0000000,0.0000000,0.0076349,0.0076349,0.0000000,0.0000000,0.0020438,0.0000000,0.0000000,0.0000000,0.0076349,0.0000000,0.0000000,0.0020438,0.0000000,0.0000000,0.0000000,0.0076349,0.0000000,0.0000000,0.0020438
58.9878410,0.9999500,,-0.9599257,-0.2802257,0.0001835,0.0039830,0.0815839,-0.2457185,-0.1798918,,,,2.1000235,-6.9643984,-21.3699589,-0.0013466,0.0049376,0.0036385,0.0199990,0.0575764,0.0000000,0.0000000,0.0076758,0.0000000,0.0000000,0.0000000,0.0575764,0.0000000,0.0000000,0.0076758,0.0000000,0.0000000,0.0000000,0.0575764,0.0000000,0.0000000,0.0076758,0.0076758,0.0000000,0.0000000,0.0020492,0.0000000,0.0000000,0.0000000,0.0076758,0.0000000,0.0000000,0.0020492,0.0000000,0.0000000,0.0000000,0.0076758,0.0000000,0.0000000,0.0020492
59.0009130,1.1496500,,-0.9599241,-0.2802365,0.0002179,0.0035832,0.1102118,-0.2627976,-0.2154418,,,,2.0999799,-6.9642110,-21.3698177,-0.0024494,0.0113608,0.0086383,0.0229930,0.0579294,0.0000000,0.0000000,0.0077230,0.0000000,0.0000000,0.0000000,0.0579294,0.0000000,0.0000000,0.0077230,0.0000000,0.0000000,0.0000000,0.0579294,0.0000000,0.0000000,0.0077230,0.0077230,0.0000000,0.0000000,0.0020555,0.0000000,0.0000000,0.0000000,0.0077230,0.0000000,0.0000000,0.0020555,0.0000000,0.0000000,0.0000000,0.0077230,0.0000000,0.0000000,0.0020555
59.0219290,1.0501001,,-0.9599569,-0.2801286,0.0000814,0.0032353,0.1099155,-0.0273186,-0.0803848,,,,2.0999799,-6.9642110,-21.3698177,0.0000000,0.0000000,0.0000000,0.0210020,0.0582538,0.0000000,0.0000000,0.0077663,0.0000000,0.0000000,0.0000000,0.0582538,0.0000000,0.0000000,0.0077663,0.0000000,0.0000000,0.0000000,0.0582538,0.0000000,0.0000000,0.0077663,0.0077663,0.0000000,0.0000000,0.0020613,0.0000000,0.0000000,0.0000000,0.0077663,0.0000000,0.0000000,0.0020613,0.0000000,0.0000000,0.0000000,0.0077663,0.0000000,0.0000000,0.0020613
59.0441780,1.0507500,,-0.9599873,-0.2800275,0.0000669,0.0029436,-0.0145766,0.0338260,-0.0521553,,,,2.0999799,-6.9642110,-21.3698177,0.0000000,0.0000000,0.0000000,0.0210150,0.0585802,0.0000000,0.0000000,0.0078096,0.0000000,0.0000000,0.0000000,0.0585802,0.0000000,0.0000000,0.0078096,0.0000000,0.0000000,0.0000000,0.0585802,0.0000000,0.0000000,0.0078096,0.0078096,0.0000000,0.0000000,0.0020671,0.0000000,0.0000000,0.0000000,0.0078096,0.0000000,0.0000000,0.0020671,0.0000000,0.0000000,0.0000000,0.0078096,0.0000000,0.0000000,0.0020671
59.0630640,,1.0099399,-0.9599928,-0.2800118,0.0001134,0.0026451,,,,-0.0201714,-0.0128585,-0.0000363,2.0994484,-6.9645567,-21.3698235,0.0000000,0.0000000,0.0000000,0.1009940,0.0570327,0.0000000,0.0000000,0.0076033,0.0000000,0.0000000,0.0000000,0.0570327,0.0000000,0.0000000,0.0076033,0.0000000,0.0000000,0.0000000,0.0570327,0.0000000,0.0000000,0.0076033,0.0076033,0.0000000,0.0000000,0.0020396,0.0000000,0.0000000,0.0000000,0.0076033,0.0000000,0.0000000,0.0020396,0.0000000,0.0000000,0.0000000,0.0076033,0.0000000,0.0000000,0.0020396
59.0766130,0.9996000,,-0.9599928,-0.2800118,0.0001134,0.0026451,-0.0102256,-0.0039763,-0.0509800,,,,2.0994484,-6.9645567,-21.3698235,0.0000000,0.0000000,0.0000000,0.0199920,0.0573367,0.0000000,0.0000000,0.0076442,0.0000000,0.0000000,0.0000000,0.0573367,0.0000000,0.0000000,0.0076442,0.0000000,0.0000000,0.0000000,0.0573367,0.0000000,0.0000000,0.0076442,0.0076442,0.0000000,0.0000000,0.0020450,0.0000000,0.0000000,0.0000000,0.0076442,0.0000000,0.0000000,0.0020450,0.0000000,0.0000000,0.0000000,0.0076442,0.0000000,0.0000000,0.0020450
59.0898430,1.3495500,,-0.9600074,-0.2799665,-0.0000806,0.0019625,0.0218571,0.1488221,-0.0135271,,,,2.0994484,-6.9645567,-21.3698235,0.0000000,0.0000000,0.0000000,0.0269910,0.0577494,0.0000000,0.0000000,0.0076994,0.0000000,0.0000000,0.0000000,0.0577494,0.0000000,0.0000000,0.0076994,0.0000000,0.0000000,0.0000000,0.0577494,0.0000000,0.0000000,0.0076994,0.0076994,0.0000000,0.0000000,0.0020524,0.0000000,0.0000000,0.0000000,0.0076994,0.0000000,0.0000000,0.0020524,0.0000000,0.0000000,0.0000000,0.0076994,0.0000000,0.0000000,0.0020524
59.1097950,1.0001000,,-0.9599820,-0.2800564,-0.0003929,0.0014227,0.0327105,0.2020203,-0.0389901,,,,2.0994484,-6.9645567,-21.3698235,0.0000000,0.0000000,0.0000000,0.0200020,0.0580574,0.0000000,0.0000000,0.0077405,0.0000000,0.0000000,0.0000000,0.0580574,0.0000000,0.0000000,0.0077405,0.0000000,0.0000000,0.0000000,0.0580574,0.0000000,0.0000000,0.0077405,0.0077405,0.0000000,0.0000000,0.0020579,0.0000000,0.0000000,0.0000000,0.0077405,0.0000000,0.0000000,0.0020579,0.0000000,0.0000000,0.0000000,0.0077405,0.0000000,0.0000000,0.0020579
59.1300990,0.9999500,,-0.0000030,0.0000120,0.0002856,0.0007113,0.0054223,0.1078232,-0.0356083,,,,2.0994484,-6.9645567,-21.3698235,0.0000000,0.0000000,0.0000000,0.0199990,0.0583670,0.0000000,0.0000000,0.0077817,0.0000000,0.0000000,0.0000000,0.0583670,0.0000000,0.0000000,0.0077817,0.0000000,0.0000000,0.0000000,0.0583670,0.0000000,0.0000000,0.0077817,0.0077817,0.0000000,0.0000000,0.0020634,0.0000000,0.0000000,0.0000000,0.0077817,0.0000000,0.0000000,0.0020634,0.0000000,0.0000000,0.0000000,0.0077817,0.0000000,0.0000000,0.0020634
59.1497520,0.9999500,,0.4799877,0.1400419,0.0007591,0.0004204,0.0374554,0.0290321,-0.0002260,,,,2.0994484,-6.9645567,-21.3698235,0.0000000,0.0000000,0.0000000,0.0199990,0.0586783,0.0000000,0.0000000,0.0078231,0.0000000,0.0000000,0.0000000,0.0586783,0.0000000,0.0000000,0.0078231,0.0000000,0.0000000,0.0000000,0.0586783,0.0000000,0.0000000,0.0078231,0.0078231,0.0000000,0.0000000,0.0020689,0.0000000,0.0000000,0.0000000,0.0078231,0.0000000,0.0000000,0.0020689,0.0000000,0.0000000,0.0000000,0.0078231,0.0000000,0.0000000,0.0020689
59.1658920,,1.0001500,0.4799877,0.1400419,0.0007591,0.0004204,,,,-0.0378278,-0.0052931,-0.0000241,2.0984476,-6.9646969,-21.3698235,-0.0001334,-0.0000187,-0.0000001,0.1000150,0.0571256,0.0000000,0.0000000,0.0076161,0.0000000,0.0000000,0.0000000,0.0571256,0.0000000,0.0000000,0.0076161,0.0000000,0.0000000,0.0000000,0.0571256,0.0000000,0.0000000,0.0076161,0.0076161,0.0000000,0.0000000,0.0020413,0.0000000,0.0000000,0.0000000,0.0076161,0.0000000,0.0000000,0.0020413,0.0000000,0.0000000,0.0000000,0.0076161,0.0000000,0.0000000,0.0020413
59.1796470,1.0000000,,0.7199631,0.2101244,0.0010495,0.0004619,0.0205130,0.0009663,0.0047698,,,,2.0984476,-6.9646969,-21.3698235,0.0000000,0.0000000,0.0000000,0.0200000,0.0574303,0.0000000,0.0000000,0.0076569,0.0000000,0.0000000,0.0000000,0.0574303,0.0000000,0.0000000,0.0076569,0.0000000,0.0000000,0.0000000,0.0574303,0.0000000,0.0000000,0.0076569,0.0076569,0.0000000,0.0000000,0.0020468,0.0000000,0.0000000,0.0000000,0.0076569,0.0000000,0.0000000,0.0020468,0.0000000,0.0000000,0.0000000,0.0076569,0.0000000,0.0000000,0.0020468
59.1931220,1.1500500,,0.8399507,0.2451658,0.0012464,0.0005455,0.0153987,-0.0102896,-0.0022538,,,,2.0984476,-6.9646969,-21.3698235,0.0000000,0.0000000,0.0000000,0.0230010,0.0577825,0.0000000,0.0000000,0.0077041,0.0000000,0.0000000,0.0000000,0.0577825,0.0000000,0.0000000,0.0077041,0.0000000,0.0000000,0.0000000,0.0577825,0.0000000,0.0000000,0.0077041,0.0077041,0.0000000,0.0000000,0.0020531,0.0000000,0.0000000,0.0000000,0.0077041,0.0000000,0.0000000,0.0020531,0.0000000,0.0000000,0.0000000,0.0077041,0.0000000,0.0000000,0.0020531
59.2128860,0.9999500,,0.8999382,0.2627078,0.0013365,0.0005986,0.0092023,-0.0056788,-0.0001503,,,,2.0984476,-6.9646969,-21.3698235,0.0000000,0.0000000,0.0000000,0.0199990,0.0580907,0.0000000,0.0000000,0.0077452,0.0000000,0.0000000,0.0000000,0.0580907,0.0000000,0.0000000,0.0077452,0.0000000,0.0000000,0.0000000,0.0580907,0.0000000,0.0000000,0.0077452,0.0077452,0.0000000,0.0000000,0.0020586,0.0000000,0.0000000,0.0000000,0.0077452,0.0000000,0.0000000,0.0020586,0.0000000,0.0000000,0.0000000,0.0077452,0.0000000,0.0000000,0.0020586
59.2327080,1.0006500,,0.9299321,0.2714788,0.0013632,0.0005718,0.0007407,-0.0078977,-0.0047138,,,,2.0984476,-6.9646969,-21.3698235,0.0000000,0.0000000,0.0000000,0.0200130,0.0584007,0.0000000,0.0000000,0.0077865,0.0000000,0.0000000,0.0000000,0.0584007,0.0000000,0.0000000,0.0077865,0.0000000,0.0000000,0.0000000,0.0584007,0.0000000,0.0000000,0.0077865,0.0077865,0.0000000,0.0000000,0.0020641,0.0000000,0.0000000,0.0000000,0.0077865,0.0000000,0.0000000,0.0020641,0.0000000,0.0000000,0.0000000,0.0077865,0.0000000,0.0000000,0.0020641
59.2536220,1.0495000,,0.9449291,0.2758642,0.0013658,0.0005348,0.0040859,-0.0030944,-0.0072397,,,,2.0984476,-6.9646969,-21.3698235,0.0000000,0.0000000,0.0000000,0.0209900,0.0587276,0.0000000,0.0000000,0.0078298,0.0000000,0.0000000,0.0000000,0.0587276,0.0000000,0.0000000,0.0078298,0.0000000,0.0000000,0.0000000,0.0587276,0.0000000,0.0000000,0.0078298,0.0078298,0.0000000,0.0000000,0.0020698,0.0000000,0.0000000,0.0000000,0.0078298,0.0000000,0.0000000,0.0020698,0.0000000,0.0000000,0.0000000,0.0078298,0.0000000,0.0000000,0.0020698
59.2697640,,0.9998800,0.9449291,0.2758642,0.0013658,0.0005348,,,,-0.0006676,-0.0004105,-0.0000018,2.0984299,-6.9647079,-21.3698235,-0.0000024,-0.0000014,-0.0000000,0.0999880,0.0571724,0.0000000,0.0000000,0.0076225,0.0000000,0.0000000,0.0000000,0.0571724,0.0000000,0.0000000,0.0076225,0.0000000,0.0000000,0.0000000,0.0571724,0.0000000,0.0000000,0.0076225,0.0076225,0.0000000,0.0000000,0.0020422,0.0000000,0.0000000,0.0000000,0.0076225,0.0000000,0.0000000,0.0020422,0.0000000,0.0000000,0.0000000,0.0076225,0.0000000,0.0000000,0.0020422
59.2832390,1.1001000,,0.9524276,0.2780570,0.0013422,0.0005067,-0.0051897,-0.0023712,-0.0097234,,,,2.0984299,-6.9647079,-21.3698235,0.0000000,0.0000000,0.0000000,0.0220020,0.0575078,0.0000000,0.0000000,0.0076675,0.0000000,0.0000000,0.0000000,0.0575078,0.0000000,0.0000000,0.0076675,0.0000000,0.0000000,0.0000000,0.0575078,0.0000000,0.0000000,0.0076675,0.0076675,0.0000000,0.0000000,0.0020482,0.0000000,0.0000000,0.0000000,0.0076675,0.0000000,0.0000000,0.0020482,0.0000000,0.0000000,0.0000000,0.0076675,0.0000000,0.0000000,0.0020482
59.2969400,1.0502001,,0.9561769,0.2791533,0.0013029,0.0004620,0.0004645,-0.0063278,-0.0046175,,,,2.0984299,-6.9647079,-21.3698235,0.0000000,0.0000000,0.0000000,0.0210040,0.0578299,0.0000000,0.0000000,0.0077106,0.0000000,0.0000000,0.0000000,0.0578299,0.0000000,0.0000000,0.0077106,0.0000000,0.0000000,0.0000000,0.0578299,0.0000000,0.0000000,0.0077106,0.0077106,0.0000000,0.0000000,0.0020540,0.0000000,0.0000000,0.0000000,0.0077106,0.0000000,0.0000000,0.0020540,0.0000000,0.0000000,0.0000000,0.0077106,0.0000000,0.0000000,0.0020540
59.3166810,1.0000000,,0.9580516,0.2797015,0.0012979,0.0003995,-0.0014004,-0.0077492,-0.0042619,,,,2.0984299,-6.9647079,-21.3698235,0.0000000,0.0000000,0.0000000,0.0200000,0.0581383,0.0000000,0.0000000,0.0077517,0.0000000,0.0000000,0.0000000,0.0581383,0.0000000,0.0000000,0.0077517,0.0000000,0.0000000,0.0000000,0.0581383,0.0000000,0.0000000,0.0077517,0.0077517,0.0000000,0.0000000,0.0020594,0.0000000,0.0000000,0.0000000,0.0077517,0.0000000,0.0000000,0.0020594,0.0000000,0.0000000,0.0000000,0.0077517,0.0000000,0.0000000,0.0020594
59.3377770,1.0496501,,0.9589889,0.2799755,0.0012911,0.0003265,0.0047319,-0.0113132,-0.0016427,,,,2.0984299,-6.9647079,-21.3698235,0.0000000,0.0000000,0.0000000,0.0209930,0.0584638,0.0000000,0.0000000,0.0077950,0.0000000,0.0000000,0.0000000,0.0584638,0.0000000,0.0000000,0.0077950,0.0000000,0.0000000,0.0000000,0.0584638,0.0000000,0.0000000,0.0077950,0.0077950,0.0000000,0.0000000,0.0020652,0.0000000,0.0000000,0.0000000,0.0077950,0.0000000,0.0000000,0.0020652,0.0000000,0.0000000,0.0000000,0.0077950,0.0000000,0.0000000,0.0020652
59.3589580,1.0500000,,0.9594576,0.2801125,0.0012771,0.0002815,0.0036630,-0.0096544,-0.0030186,,,,2.0984299,-6.9647079,-21.3698235,0.0000000,0.0000000,0.0000000,0.0210000,0.0587912,0.0000000,0.0000000,0.0078384,0.0000000,0.0000000,0.0000000,0.0587912,0.0000000,0.0000000,0.0078384,0.0000000,0.0000000,0.0000000,0.0587912,0.0000000,0.0000000,0.0078384,0.0078384,0.0000000,0.0000000,0.0020710,0.0000000,0.0000000,0.0000000,0.0078384,0.0000000,0.0000000,0.0020710,0.0000000,0.0000000,0.0000000,0.0078384,0.0000000,0.0000000,0.0020710
59.3738540,,0.9999600,0.9594576,0.2801125,0.0012771,0.0002815,,,,-0.0000133,-0.0000085,-0.0000000,2.0984297,-6.9647079,-21.3698235,-0.0000000,-0.0000000,-0.0000000,0.0999960,0.0572326,0.0000000,0.0000000,0.0076306,0.0000000,0.0000000,0.0000000,0.0572326,0.0000000,0.0000000,0.0076306,0.0000000,0.0000000,0.0000000,0.0572326,0.0000000,0.0000000,0.0076306,0.0076306,0.0000000,0.0000000,0.0020433,0.0000000,0.0000000,0.0000000,0.0076306,0.0000000,0.0000000,0.0020433,0.0000000,0.0000000,0.0000000,0.0076306,0.0000000,0.0000000,0.0020433
59.3872970,1.0005500,,0.9596920,0.2801810,0.0012763,0.0002243,0.0070042,-0.0082681,0.0014204,,,,2.0984297,-6.9647079,-21.3698235,0.0000000,0.0000000,0.0000000,0.0200110,0.0575380,0.0000000,0.0000000,0.0076716,0.0000000,0.0000000,0.0000000,0.0575380,0.0000000,0.0000000,0.0076716,0.0000000,0.0000000,0.0000000,0.0575380,0.0000000,0.0000000,0.0076716,0.0076716,0.0000000,0.0000000,0.0020487,0.0000000,0.0000000,0.0000000,0.0076716,0.0000000,0.0000000,0.0020487,0.0000000,0.0000000,0.0000000,0.0076716,0.0000000,0.0000000,0.0020487
59.4007630,1.0993501,,0.9598092,0.2802151,0.0012703,0.0001463,0.0074389,-0.0094365,-0.0078347,,,,2.0984297,-6.9647079,-21.3698235,0.0000000,0.0000000,0.0000000,0.0219870,0.0578754,0.0000000,0.0000000,0.0077167,0.0000000,0.0000000,0.0000000,0.0578754,0.0000000,0.0000000,0.0077167,0.0000000,0.0000000,0.0000000,0.0578754,0.0000000,0.0000000,0.0077167,0.0077167,0.0000000,0.0000000,0.0020548,0.0000000,0.0000000,0.0000000,0.0077167,0.0000000,0.0000000,0.0020548,0.0000000,0.0000000,0.0000000,0.0077167,0.0000000,0.0000000,0.0020548
59.4219370,1.0508000,,0.9598678,0.2802322,0.0012692,0.0000884,0.0037347,-0.0085177,-0.0070912,,,,2.0984297,-6.9647079,-21.3698235,0.0000000,0.0000000,0.0000000,0.0210160,0.0581997,0.0000000,0.0000000,0.0077599,0.0000000,0.0000000,0.0000000,0.0581997,0.0000000,0.0000000,0.0077599,0.0000000,0.0000000,0.0000000,0.0581997,0.0000000,0.0000000,0.0077599,0.0077599,0.0000000,0.0000000,0.0020605,0.0000000,0.0000000,0.0000000,0.0077599,0.0000000,0.0000000,0.0020605,0.0000000,0.0000000,0.0000000,0.0077599,0.0000000,0.0000000,0.0020605
59.4419370,0.9994000,,-0.0000293,-0.0000085,0.0000228,0.0000706,0.0038586,-0.0057695,0.0013372,,,,2.0984297,-6.9647079,-21.3698235,0.0000000,0.0000000,0.0000000,0.0199880,0.0585099,0.0000000,0.0000000,0.0078012,0.0000000,0.0000000,0.0000000,0.0585099,0.0000000,0.0000000,0.0078012,0.0000000,0.0000000,0.0000000,0.0585099,0.0000000,0.0000000,0.0078012,0.0078012,0.0000000,0.0000000,0.0020660,0.0000000,0.0000000,0.0000000,0.0078012,0.0000000,0.0000000,0.0020660,0.0000000,0.0000000,0.0000000,0.0078012,0.0000000,0.0000000,0.0020660
59.4642420,,1.0000000,-0.4799779,-0.1401288,-0.0006017,0.0000658,,,,-0.0000003,-0.0000000,0.0000000,2.0984297,-6.9647079,-21.3698235,0.0000000,0.0000000,0.0000000,0.1000000,0.0569661,0.0000000,0.0000000,0.0075953,0.0000000,0.0000000,0.0000000,0.0569661,0.0000000,0.0000000,0.0075953,0.0000000,0.0000000,0.0000000,0.0569661,0.0000000,0.0000000,0.0075953,0.0075953,0.0000000,0.0000000,0.0020386,0.0000000,0.0000000,0.0000000,0.0075953,0.0000000,0.0000000,0.0020386,0.0000000,0.0000000,0.0000000,0.0075953,0.0000000,0.0000000,0.0020386
59.4777420,1.0005001,,-0.4799779,-0.1401288,-0.0006017,0.0000658,0.0029364,-0.0063408,0.0026217,,,,2.0984297,-6.9647079,-21.3698235,0.0000000,0.0000000,0.0000000,0.0200100,0.0572701,0.0000000,0.0000000,0.0076362,0.0000000,0.0000000,0.0000000,0.0572701,0.0000000,0.0000000,0.0076362,0.0000000,0.0000000,0.0000000,0.0572701,0.0000000,0.0000000,0.0076362,0.0076362,0.0000000,0.0000000,0.0020441,0.0000000,0.0000000,0.0000000,0.0076362,0.0000000,0.0000000,0.0020441,0.0000000,0.0000000,0.0000000,0.0076362,0.0000000,0.0000000,0.0020441
59.4909530,1.4493001,,-0.7199522,-0.2101889,-0.0009039,0.0001341,0.0073352,-0.0079464,0.0076585,,,,2.0984297,-6.9647079,-21.3698235,0.0000000,0.0000000,0.0000000,0.0289860,0.0577127,0.0000000,0.0000000,0.0076955,0.0000000,0.0000000,0.0000000,0.0577127,0.0000000,0.0000000,0.0076955,0.0000000,0.0000000,0.0000000,0.0577127,0.0000000,0.0000000,0.0076955,0.0076955,0.0000000,0.0000000,0.0020520,0.0000000,0.0000000,0.0000000,0.0076955,0.0000000,0.0000000,0.0020520,0.0000000,0.0000000,0.0000000,0.0076955,0.0000000,0.0000000,0.0020520
59.5105150,1.0001501,,-0.8399395,-0.2452189,-0.0009991,0.0002219,0.0008218,-0.0105726,0.0048058,,,,2.0984297,-6.9647079,-21.3698235,0.0000000,0.0000000,0.0000000,0.0200030,0.0580206,0.0000000,0.0000000,0.0077366,0.0000000,0.0000000,0.0000000,0.0580206,0.0000000,0.0000000,0.0077366,0.0000000,0.0000000,0.0000000,0.0580206,0.0000000,0.0000000,0.0077366,0.0077366,0.0000000,0.0000000,0.0020575,0.0000000,0.0000000,0.0000000,0.0077366,0.0000000,0.0000000,0.0020575,0.0000000,0.0000000,0.0000000,0.0077366,0.0000000,0.0000000,0.0020575
59.5318530,1.0500000,,-0.8999331,-0.2627339,-0.0010463,0.0002788,-0.0017024,-0.0067283,0.0041119,,,,2.0984297,-6.9647079,-21.3698235,0.0000000,0.0000000,0.0000000,0.0210000,0.0583456,0.0000000,0.0000000,0.0077799,0.0000000,0.0000000,0.0000000,0.0583456,0.0000000,0.0000000,0.0077799,0.0000000,0.0000000,0.0000000,0.0583456,0.0000000,0.0000000,0.0077799,0.0077799,0.0000000,0.0000000,0.0020633,0.0000000,0.0000000,0.0000000,0.0077799,0.0000000,0.0000000,0.0020633,0.0000000,0.0000000,0.0000000,0.0077799,0.0000000,0.0000000,0.0020633
59.5542950,1.0502501,,-0.9299299,-0.2714913,-0.0010540,0.0003469,0.0004610,-0.0093608,-0.0011179,,,,2.0984297,-6.9647079,-21.3698235,0.0000000,0.0000000,0.0000000,0.0210050,0.0586724,0.0000000,0.0000000,0.0078233,0.0000000,0.0000000,0.0000000,0.0586724,0.0000000,0.0000000,0.0078233,0.0000000,0.0000000,0.0000000,0.0586724,0.0000000,0.0000000,0.0078233,0.0078233,0.0000000,0.0000000,0.0020690,0.0000000,0.0000000,0.0000000,0.0078233,0.0000000,0.0000000,0.0020690,0.0000000,0.0000000,0.0000000,0.0078233,0.0000000,0.0000000,0.0020690
59.5703860,,1.0200399,-0.9299299,-0.2714913,-0.0010540,0.0004104,,,,-0.0000000,-0.0000000,-0.0000000,2.0984297,-6.9647079,-21.3698235,-0.0000000,-0.0000000,-0.0000000,0.1020040,0.0571201,0.0000000,0.0000000,0.0076163,0.0000000,0.0000000,0.0000000,0.0571201,0.0000000,0.0000000,0.0076163,0.0000000,0.0000000,0.0000000,0.0571201,0.0000000,0.0000000,0.0076163,0.0076163,0.0000000,0.0000000,0.0020414,0.0000000,0.0000000,0.0000000,0.0076163,0.0000000,0.0000000,0.0020414,0.0000000,0.0000000,0.0000000,0.0076163,0.0000000,0.0000000,0.0020414
59.5831220,0.9999500,,-0.9449283,-0.2758700,-0.0010255,0.0004104,-0.0010970,-0.0081671,-0.0030003,,,,2.0984297,-6.9647079,-21.3698235,0.0000000,0.0000000,0.0000000,0.0199990,0.0574247,0.0000000,0.0000000,0.0076572,0.0000000,0.0000000,0.0000000,0.0574247,0.0000000,0.0000000,0.0076572,0.0000000,0.0000000,0.0000000,0.0574247,0.0000000,0.0000000,0.0076572,0.0076572,0.0000000,0.0000000,0.0020469,0.0000000,0.0000000,0.0000000,0.0076572,0.0000000,0.0000000,0.0020469,0.0000000,0.0000000,0.0000000,0.0076572,0.0000000,0.0000000,0.0020469
59.5978040,1.2496500,,-0.9524276,-0.2780593,-0.0010150,0.0004963,-0.0026466,-0.0079516,0.0043592,,,,2.0984297,-6.9647079,-21.3698235,0.0000000,0.0000000,0.0000000,0.0249930,0.0578075,0.0000000,0.0000000,0.0077084,0.0000000,0.0000000,0.0000000,0.0578075,0.0000000,0.0000000,0.0077084,0.0000000,0.0000000,0.0000000,0.0578075,0.0000000,0.0000000,0.0077084,0.0077084,0.0000000,0.0000000,0.0020538,0.0000000,0.0000000,0.0000000,0.0077084,0.0000000,0.0000000,0.0020538,0.0000000,0.0000000,0.0000000,0.0077084,0.0000000,0.0000000,0.0020538
59.6188820,1.0504500,,-0.9561771,-0.2791539,-0.0010107,0.0005689,-0.0014911,-0.0073022,-0.0031915,,,,2.0984297,-6.9647079,-21.3698235,0.0000000,0.0000000,0.0000000,0.0210090,0.0581313,0.0000000,0.0000000,0.0077516,0.0000000,0.0000000,0.0000000,0.0581313,0.0000000,0.0000000,0.0077516,0.0000000,0.0000000,0.0000000,0.0581313,0.0000000,0.0000000,0.0077516,0.0077516,0.0000000,0.0000000,0.0020595,0.0000000,0.0000000,0.0000000,0.0077516,0.0000000,0.0000000,0.0020595,0.0000000,0.0000000,0.0000000,0.0077516,0.0000000,0.0000000,0.0020595
