t,predict_cpu,update_cpu,quat_x,quat_y,quat_z,quat_w,accel_x,accel_y,accel_z,of_x,of_y,of_z,x_x,x_y,x_z,x_vx,x_vy,x_vz,dt,P_0,P_1,P_2,P_3,P_4,P_5,P_6,P_7,P_8,P_9,P_10,P_11,P_12,P_13,P_14,P_15,P_16,P_17,P_18,P_19,P_20,P_21,P_22,P_23,P_24,P_25,P_26,P_27,P_28,P_29,P_30,P_31,P_32,P_33,P_34,P_35
482.9517550,,1.0000100,-0.9991256,0.0417185,-0.0017065,0.0021761,,,,0.0000000,0.0000000,0.0000000,0.2118174,4.8160572,-15.9049530,0.0000000,0.0000000,0.0000000,0.1000010,0.0001992,0.0000000,0.0000000,0.0000199,0.0000000,0.0000000,0.0000000,0.0001992,0.0000000,0.0000000,0.0000199,0.0000000,0.0000000,0.0000000,0.0001992,0.0000000,0.0000000,0.0000199,0.0000199,0.0000000,0.0000000,0.0000040,0.0000000,0.0000000,0.0000000,0.0000199,0.0000000,0.0000000,0.0000040,0.0000000,0.0000000,0.0000000,0.0000199,0.0000000,0.0000000,0.0000040
482.9652910,1.0003999,,-0.9991256,0.0417185,-0.0017035,0.0021825,-0.0048813,0.0014162,0.0011007,,,,0.2118174,4.8160572,-15.9049530,0.0000000,0.0000000,0.0000000,0.0200080,0.0002000,0.0000000,0.0000000,0.0000200,0.0000000,0.0000000,0.0000000,0.0002000,0.0000000,0.0000000,0.0000200,0.0000000,0.0000000,0.0000000,0.0002000,0.0000000,0.0000000,0.0000200,0.0000200,0.0000000,0.0000000,0.0000040,0.0000000,0.0000000,0.0000000,0.0000200,0.0000000,0.0000000,0.0000040,0.0000000,0.0000000,0.0000000,0.0000200,0.0000000,0.0000000,0.0000040
482.9787470,1.1495000,,-0.9991256,0.0417186,-0.0016868,0.0021994,-0.0010826,0.0005555,0.0024958,,,,0.2118174,4.8160572,-15.9049530,0.0000000,0.0000000,0.0000000,0.0229900,0.0002009,0.0000000,0.0000000,0.0000201,0.0000000,0.0000000,0.0000000,0.0002009,0.0000000,0.0000000,0.0000201,0.0000000,0.0000000,0.0000000,0.0002009,0.0000000,0.0000000,0.0000201,0.0000201,0.0000000,0.0000000,0.0000040,0.0000000,0.0000000,0.0000000,0.0000201,0.0000000,0.0000000,0.0000040,0.0000000,0.0000000,0.0000000,0.0000201,0.0000000,0.0000000,0.0000040
482.9991570,1.0000000,,-0.9991255,0.0417186,-0.0016820,0.0022139,0.0008091,-0.0037734,-0.0036425,,,,0.2118174,4.8160572,-15.9049530,0.0000000,0.0000000,0.0000000,0.0200000,0.0002018,0.0000000,0.0000000,0.0000202,0.0000000,0.0000000,0.0000000,0.0002018,0.0000000,0.0000000,0.0000202,0.0000000,0.0000000,0.0000000,0.0002018,0.0000000,0.0000000,0.0000202,0.0000202,0.0000000,0.0000000,0.0000040,0.0000000,0.0000000,0.0000000,0.0000202,0.0000000,0.0000000,0.0000040,0.0000000,0.0000000,0.0000000,0.0000202,0.0000000,0.0000000,0.0000040
483.0188210,1.0000000,,-0.9991255,0.0417186,-0.0016892,0.0022181,-0.0024107,0.0001656,-0.0015847,,,,0.2118174,4.8160572,-15.9049530,0.0000000,0.0000000,0.0000000,0.0200000,0.0002026,0.0000000,0.0000000,0.0000202,0.0000000,0.0000000,0.0000000,0.0002026,0.0000000,0.0000000,0.0000202,0.0000000,0.0000000,0.0000000,0.0002026,0.0000000,0.0000000,0.0000202,0.0000202,0.0000000,0.0000000,0.0000040,0.0000000,0.0000000,0.0000000,0.0000202,0.0000000,0.0000000,0.0000040,0.0000000,0.0000000,0.0000000,0.0000202,0.0000000,0.0000000,0.0000040
483.0400760,,1.0099499,-0.9991255,0.0417186,-0.0016758,0.0022193,,,,0.0000000,0.0000000,0.0000000,0.2118174,4.8160572,-15.9049530,0.0000000,0.0000000,0.0000000,0.1009950,0.0001985,0.0000000,0.0000000,0.0000198,0.0000000,0.0000000,0.0000000,0.0001985,0.0000000,0.0000000,0.0000198,0.0000000,0.0000000,0.0000000,0.0001985,0.0000000,0.0000000,0.0000198,0.0000198,0.0000000,0.0000000,0.0000040,0.0000000,0.0000000,0.0000000,0.0000198,0.0000000,0.0000000,0.0000040,0.0000000,0.0000000,0.0000000,0.0000198,0.0000000,0.0000000,0.0000040
483.0535340,1.0002000,,-0.9991255,0.0417186,-0.0016758,0.0022193,-0.0015487,-0.0027553,0.0004207,,,,0.2118174,4.8160572,-15.9049530,0.0000000,0.0000000,0.0000000,0.0200040,0.0001993,0.0000000,0.0000000,0.0000199,0.0000000,0.0000000,0.0000000,0.0001993,0.0000000,0.0000000,0.0000199,0.0000000,0.0000000,0.0000000,0.0001993,0.0000000,0.0000000,0.0000199,0.0000199,0.0000000,0.0000000,0.0000040,0.0000000,0.0000000,0.0000000,0.0000199,0.0000000,0.0000000,0.0000040,0.0000000,0.0000000,0.0000000,0.0000199,0.0000000,0.0000000,0.0000040
483.0668630,1.3999001,,-0.9991256,0.0417187,-0.0016374,0.0021994,-0.0015449,-0.0035215,0.0024076,,,,0.2118174,4.8160572,-15.9049530,0.0000000,0.0000000,0.0000000,0.0279980,0.0002004,0.0000000,0.0000000,0.0000200,0.0000000,0.0000000,0.0000000,0.0002004,0.0000000,0.0000000,0.0000200,0.0000000,0.0000000,0.0000000,0.0002004,0.0000000,0.0000000,0.0000200,0.0000200,0.0000000,0.0000000,0.0000040,0.0000000,0.0000000,0.0000000,0.0000200,0.0000000,0.0000000,0.0000040,0.0000000,0.0000000,0.0000000,0.0000200,0.0000000,0.0000000,0.0000040
483.0870560,0.9999500,,-0.9991257,0.0417187,-0.0016168,0.0021844,-0.0032520,-0.0068496,0.0021804,,,,0.2118174,4.8160572,-15.9049530,0.0000000,0.0000000,0.0000000,0.0199990,0.0002012,0.0000000,0.0000000,0.0000201,0.0000000,0.0000000,0.0000000,0.0002012,0.0000000,0.0000000,0.0000201,0.0000000,0.0000000,0.0000000,0.0002012,0.0000000,0.0000000,0.0000201,0.0000201,0.0000000,0.0000000,0.0000040,0.0000000,0.0000000,0.0000000,0.0000201,0.0000000,0.0000000,0.0000040,0.0000000,0.0000000,0.0000000,0.0000201,0.0000000,0.0000000,0.0000040
483.1067280,1.0003999,,-0.9991258,0.0417188,-0.0015962,0.0021582,-0.0043268,-0.0012275,0.0006019,,,,0.2118174,4.8160572,-15.9049530,0.0000000,0.0000000,0.0000000,0.0200080,0.0002021,0.0000000,0.0000000,0.0000202,0.0000000,0.0000000,0.0000000,0.0002021,0.0000000,0.0000000,0.0000202,0.0000000,0.0000000,0.0000000,0.0002021,0.0000000,0.0000000,0.0000202,0.0000202,0.0000000,0.0000000,0.0000040,0.0000000,0.0000000,0.0000000,0.0000202,0.0000000,0.0000000,0.0000040,0.0000000,0.0000000,0.0000000,0.0000202,0.0000000,0.0000000,0.0000040
483.1275810,1.0496000,,-0.9991260,0.0417188,-0.0015520,0.0021274,0.0005679,-0.0016285,0.0046955,,,,0.2118174,4.8160572,-15.9049530,0.0000000,0.0000000,0.0000000,0.0209920,0.0002029,0.0000000,0.0000000,0.0000203,0.0000000,0.0000000,0.0000000,0.0002029,0.0000000,0.0000000,0.0000203,0.0000000,0.0000000,0.0000000,0.0002029,0.0000000,0.0000000,0.0000203,0.0000203,0.0000000,0.0000000,0.0000040,0.0000000,0.0000000,0.0000000,0.0000203,0.0000000,0.0000000,0.0000040,0.0000000,0.0000000,0.0000000,0.0000203,0.0000000,0.0000000,0.0000040
483.1430640,,1.0200399,-0.9991260,0.0417188,-0.0015520,0.0021274,,,,0.0000000,0.0000000,0.0000000,0.2118174,4.8160572,-15.9049530,0.0000000,0.0000000,0.0000000,0.1020040,0.0001989,0.0000000,0.0000000,0.0000199,0.0000000,0.0000000,0.0000000,0.0001989,0.0000000,0.0000000,0.0000199,0.0000000,0.0000000,0.0000000,0.0001989,0.0000000,0.0000000,0.0000199,0.0000199,0.0000000,0.0000000,0.0000040,0.0000000,0.0000000,0.0000000,0.0000199,0.0000000,0.0000000,0.0000040,0.0000000,0.0000000,0.0000000,0.0000199,0.0000000,0.0000000,0.0000040
483.1565250,1.1009001,,-0.9991261,0.0417189,-0.0015144,0.0021090,-0.0003645,-0.0023249,0.0025919,,,,0.2118174,4.8160572,-15.9049530,0.0000000,0.0000000,0.0000000,0.0220180,0.0001997,0.0000000,0.0000000,0.0000200,0.0000000,0.0000000,0.0000000,0.0001997,0.0000000,0.0000000,0.0000200,0.0000000,0.0000000,0.0000000,0.0001997,0.0000000,0.0000000,0.0000200,0.0000200,0.0000000,0.0000000,0.0000040,0.0000000,0.0000000,0.0000000,0.0000200,0.0000000,0.0000000,0.0000040,0.0000000,0.0000000,0.0000000,0.0000200,0.0000000,0.0000000,0.0000040
483.1709470,1.0495000,,-0.9991261,0.0417189,-0.0015028,0.0020946,0.0069665,-0.0039014,0.0032491,,,,0.2118174,4.8160572,-15.9049530,0.0000000,0.0000000,0.0000000,0.0209900,0.0002006,0.0000000,0.0000000,0.0000200,0.0000000,0.0000000,0.0000000,0.0002006,0.0000000,0.0000000,0.0000200,0.0000000,0.0000000,0.0000000,0.0002006,0.0000000,0.0000000,0.0000200,0.0000200,0.0000000,0.0000000,0.0000040,0.0000000,0.0000000,0.0000000,0.0000200,0.0000000,0.0000000,0.0000040,0.0000000,0.0000000,0.0000000,0.0000200,0.0000000,0.0000000,0.0000040
483.1918590,1.0500000,,-0.9991261,0.0417189,-0.0015002,0.0021105,0.0069622,-0.0029349,0.0023570,,,,0.2118174,4.8160572,-15.9049530,0.0000000,0.0000000,0.0000000,0.0210000,0.0002014,0.0000000,0.0000000,0.0000201,0.0000000,0.0000000,0.0000000,0.0002014,0.0000000,0.0000000,0.0000201,0.0000000,0.0000000,0.0000000,0.0002014,0.0000000,0.0000000,0.0000201,0.0000201,0.0000000,0.0000000,0.0000040,0.0000000,0.0000000,0.0000000,0.0000201,0.0000000,0.0000000,0.0000040,0.0000000,0.0000000,0.0000000,0.0000201,0.0000000,0.0000000,0.0000040
483.2119020,0.9996500,,-0.9991260,0.0417190,-0.0015122,0.0021410,0.0071814,-0.0080211,-0.0005305,,,,0.2118174,4.8160572,-15.9049530,0.0000000,0.0000000,0.0000000,0.0199930,0.0002022,0.0000000,0.0000000,0.0000202,0.0000000,0.0000000,0.0000000,0.0002022,0.0000000,0.0000000,0.0000202,0.0000000,0.0000000,0.0000000,0.0002022,0.0000000,0.0000000,0.0000202,0.0000202,0.0000000,0.0000000,0.0000040,0.0000000,0.0000000,0.0000000,0.0000202,0.0000000,0.0000000,0.0000040,0.0000000,0.0000000,0.0000000,0.0000202,0.0000000,0.0000000,0.0000040
483.2318850,1.0003500,,-0.9991259,0.0417190,-0.0015170,0.0021639,0.0082675,-0.0071310,0.0007113,,,,0.2118174,4.8160572,-15.9049530,0.0000000,0.0000000,0.0000000,0.0200070,0.0002030,0.0000000,0.0000000,0.0000203,0.0000000,0.0000000,0.0000000,0.0002030,0.0000000,0.0000000,0.0000203,0.0000000,0.0000000,0.0000000,0.0002030,0.0000000,0.0000000,0.0000203,0.0000203,0.0000000,0.0000000,0.0000040,0.0000000,0.0000000,0.0000000,0.0000203,0.0000000,0.0000000,0.0000040,0.0000000,0.0000000,0.0000000,0.0000203,0.0000000,0.0000000,0.0000040
483.2484920,,0.9999800,-0.9991259,0.0417190,-0.0015170,0.0021639,,,,0.0000000,0.0000000,0.0000000,0.2118174,4.8160572,-15.9049530,0.0000000,0.0000000,0.0000000,0.0999980,0.0001990,0.0000000,0.0000000,0.0000199,0.0000000,0.0000000,0.0000000,0.0001990,0.0000000,0.0000000,0.0000199,0.0000000,0.0000000,0.0000000,0.0001990,0.0000000,0.0000000,0.0000199,0.0000199,0.0000000,0.0000000,0.0000040,0.0000000,0.0000000,0.0000000,0.0000199,0.0000000,0.0000000,0.0000040,0.0000000,0.0000000,0.0000000,0.0000199,0.0000000,0.0000000,0.0000040
483.2615230,1.0999500,,-0.9991258,0.0417190,-0.0015197,0.0021687,0.0078340,-0.0025508,0.0010881,,,,0.2118174,4.8160572,-15.9049530,0.0000000,0.0000000,0.0000000,0.0219990,0.0001999,0.0000000,0.0000000,0.0000200,0.0000000,0.0000000,0.0000000,0.0001999,0.0000000,0.0000000,0.0000200,0.0000000,0.0000000,0.0000000,0.0001999,0.0000000,0.0000000,0.0000200,0.0000200,0.0000000,0.0000000,0.0000040,0.0000000,0.0000000,0.0000000,0.0000200,0.0000000,0.0000000,0.0000040,0.0000000,0.0000000,0.0000000,0.0000200,0.0000000,0.0000000,0.0000040
483.2749900,1.0500500,,-0.9991259,0.0417191,-0.0015014,0.0021668,0.0044816,-0.0012449,0.0024972,,,,0.2118174,4.8160572,-15.9049530,0.0000000,0.0000000,0.0000000,0.0210010,0.0002007,0.0000000,0.0000000,0.0000201,0.0000000,0.0000000,0.0000000,0.0002007,0.0000000,0.0000000,0.0000201,0.0000000,0.0000000,0.0000000,0.0002007,0.0000000,0.0000000,0.0000201,0.0000201,0.0000000,0.0000000,0.0000040,0.0000000,0.0000000,0.0000000,0.0000201,0.0000000,0.0000000,0.0000040,0.0000000,0.0000000,0.0000000,0.0000201,0.0000000,0.0000000,0.0000040
483.2959090,1.0499500,,-0.9991259,0.0417191,-0.0014890,0.0021701,-0.0042671,0.0006364,0.0007603,,,,0.2118174,4.8160572,-15.9049530,0.0000000,0.0000000,0.0000000,0.0209990,0.0002015,0.0000000,0.0000000,0.0000201,0.0000000,0.0000000,0.0000000,0.0002015,0.0000000,0.0000000,0.0000201,0.0000000,0.0000000,0.0000000,0.0002015,0.0000000,0.0000000,0.0000201,0.0000201,0.0000000,0.0000000,0.0000040,0.0000000,0.0000000,0.0000000,0.0000201,0.0000000,0.0000000,0.0000040,0.0000000,0.0000000,0.0000000,0.0000201,0.0000000,0.0000000,0.0000040
483.3157690,1.0002501,,-0.9991260,0.0417191,-0.0014862,0.0021530,-0.0010807,0.0044686,-0.0013288,,,,0.2118174,4.8160572,-15.9049530,0.0000000,0.0000000,0.0000000,0.0200050,0.0002024,0.0000000,0.0000000,0.0000202,0.0000000,0.0000000,0.0000000,0.0002024,0.0000000,0.0000000,0.0000202,0.0000000,0.0000000,0.0000000,0.0002024,0.0000000,0.0000000,0.0000202,0.0000202,0.0000000,0.0000000,0.0000040,0.0000000,0.0000000,0.0000000,0.0000202,0.0000000,0.0000000,0.0000040,0.0000000,0.0000000,0.0000000,0.0000202,0.0000000,0.0000000,0.0000040
483.3366710,1.0494001,,-0.9991259,0.0417191,-0.0015015,0.0021651,-0.0022036,0.0025242,-0.0009086,,,,0.2118174,4.8160572,-15.9049530,0.0000000,0.0000000,0.0000000,0.0209880,0.0002032,0.0000000,0.0000000,0.0000203,0.0000000,0.0000000,0.0000000,0.0002032,0.0000000,0.0000000,0.0000203,0.0000000,0.0000000,0.0000000,0.0002032,0.0000000,0.0000000,0.0000203,0.0000203,0.0000000,0.0000000,0.0000040,0.0000000,0.0000000,0.0000000,0.0000203,0.0000000,0.0000000,0.0000040,0.0000000,0.0000000,0.0000000,0.0000203,0.0000000,0.0000000,0.0000040
483.3524070,,1.0000700,-0.9991259,0.0417191,-0.0015015,0.0021651,,,,0.0000000,0.0000000,0.0000000,0.2118174,4.8160572,-15.9049530,0.0000000,0.0000000,0.0000000,0.1000070,0.0001992,0.0000000,0.0000000,0.0000199,0.0000000,0.0000000,0.0000000,0.0001992,0.0000000,0.0000000,0.0000199,0.0000000,0.0000000,0.0000000,0.0001992,0.0000000,0.0000000,0.0000199,0.0000199,0.0000000,0.0000000,0.0000040,0.0000000,0.0000000,0.0000000,0.0000199,0.0000000,0.0000000,0.0000040,0.0000000,0.0000000,0.0000000,0.0000199,0.0000000,0.0000000,0.0000040
483.3662540,1.1001501,,-0.9991258,0.0417191,-0.0015274,0.0021839,0.0020797,0.0008425,0.0019871,,,,0.2118174,4.8160572,-15.9049530,0.0000000,0.0000000,0.0000000,0.0220030,0.0002000,0.0000000,0.0000000,0.0000200,0.0000000,0.0000000,0.0000000,0.0002000,0.0000000,0.0000000,0.0000200,0.0000000,0.0000000,0.0000000,0.0002000,0.0000000,0.0000000,0.0000200,0.0000200,0.0000000,0.0000000,0.0000040,0.0000000,0.0000000,0.0000000,0.0000200,0.0000000,0.0000000,0.0000040,0.0000000,0.0000000,0.0000000,0.0000200,0.0000000,0.0000000,0.0000040
483.3799510,1.0501500,,-0.9991258,0.0417191,-0.0015460,0.0021963,-0.0018898,0.0034272,0.0027025,,,,0.2118174,4.8160572,-15.9049530,0.0000000,0.0000000,0.0000000,0.0210030,0.0002009,0.0000000,0.0000000,0.0000201,0.0000000,0.0000000,0.0000000,0.0002009,0.0000000,0.0000000,0.0000201,0.0000000,0.0000000,0.0000000,0.0002009,0.0000000,0.0000000,0.0000201,0.0000201,0.0000000,0.0000000,0.0000040,0.0000000,0.0000000,0.0000000,0.0000201,0.0000000,0.0000000,0.0000040,0.0000000,0.0000000,0.0000000,0.0000201,0.0000000,0.0000000,0.0000040
483.3996170,1.0000501,,-0.9991258,0.0417192,-0.0015140,0.0022208,-0.0020817,-0.0006134,0.0020837,,,,0.2118174,4.8160572,-15.9049530,0.0000000,0.0000000,0.0000000,0.0200010,0.0002017,0.0000000,0.0000000,0.0000202,0.0000000,0.0000000,0.0000000,0.0002017,0.0000000,0.0000000,0.0000202,0.0000000,0.0000000,0.0000000,0.0002017,0.0000000,0.0000000,0.0000202,0.0000202,0.0000000,0.0000000,0.0000040,0.0000000,0.0000000,0.0000000,0.0000202,0.0000000,0.0000000,0.0000040,0.0000000,0.0000000,0.0000000,0.0000202,0.0000000,0.0000000,0.0000040
483.4206910,1.0496501,,-0.9991257,0.0417192,-0.0015042,0.0022477,-0.0031695,-0.0016266,0.0088543,,,,0.2118174,4.8160572,-15.9049530,0.0000000,0.0000000,0.0000000,0.0209930,0.0002025,0.0000000,0.0000000,0.0000202,0.0000000,0.0000000,0.0000000,0.0002025,0.0000000,0.0000000,0.0000202,0.0000000,0.0000000,0.0000000,0.0002025,0.0000000,0.0000000,0.0000202,0.0000202,0.0000000,0.0000000,0.0000040,0.0000000,0.0000000,0.0000000,0.0000202,0.0000000,0.0000000,0.0000040,0.0000000,0.0000000,0.0000000,0.0000202,0.0000000,0.0000000,0.0000040
483.4430640,,1.0099300,-0.9991257,0.0417193,-0.0014841,0.0022582,,,,0.0000000,0.0000000,0.0000000,0.2118174,4.8160572,-15.9049530,0.0000000,0.0000000,0.0000000,0.1009930,0.0001985,0.0000000,0.0000000,0.0000198,0.0000000,0.0000000,0.0000000,0.0001985,0.0000000,0.0000000,0.0000198,0.0000000,0.0000000,0.0000000,0.0001985,0.0000000,0.0000000,0.0000198,0.0000198,0.0000000,0.0000000,0.0000040,0.0000000,0.0000000,0.0000000,0.0000198,0.0000000,0.0000000,0.0000040,0.0000000,0.0000000,0.0000000,0.0000198,0.0000000,0.0000000,0.0000040
483.4556170,1.1001501,,-0.9991257,0.0417193,-0.0014841,0.0022582,-0.0051477,0.0012772,0.0039389,,,,0.2118174,4.8160572,-15.9049530,0.0000000,0.0000000,0.0000000,0.0220030,0.0001994,0.0000000,0.0000000,0.0000199,0.0000000,0.0000000,0.0000000,0.0001994,0.0000000,0.0000000,0.0000199,0.0000000,0.0000000,0.0000000,0.0001994,0.0000000,0.0000000,0.0000199,0.0000199,0.0000000,0.0000000,0.0000040,0.0000000,0.0000000,0.0000000,0.0000199,0.0000000,0.0000000,0.0000040,0.0000000,0.0000000,0.0000000,0.0000199,0.0000000,0.0000000,0.0000040
483.4686360,1.2998000,,-0.9991258,0.0417193,-0.0014679,0.0022338,-0.0063733,0.0009590,0.0024577,,,,0.2118174,4.8160572,-15.9049530,0.0000000,0.0000000,0.0000000,0.0259960,0.0002004,0.0000000,0.0000000,0.0000200,0.0000000,0.0000000,0.0000000,0.0002004,0.0000000,0.0000000,0.0000200,0.0000000,0.0000000,0.0000000,0.0002004,0.0000000,0.0000000,0.0000200,0.0000200,0.0000000,0.0000000,0.0000040,0.0000000,0.0000000,0.0000000,0.0000200,0.0000000,0.0000000,0.0000040,0.0000000,0.0000000,0.0000000,0.0000200,0.0000000,0.0000000,0.0000040
483.4898570,1.0500500,,-0.9991258,0.0417194,-0.0014558,0.0022221,-0.0052618,-0.0016415,0.0022054,,,,0.2118174,4.8160572,-15.9049530,0.0000000,0.0000000,0.0000000,0.0210010,0.0002012,0.0000000,0.0000000,0.0000201,0.0000000,0.0000000,0.0000000,0.0002012,0.0000000,0.0000000,0.0000201,0.0000000,0.0000000,0.0000000,0.0002012,0.0000000,0.0000000,0.0000201,0.0000201,0.0000000,0.0000000,0.0000040,0.0000000,0.0000000,0.0000000,0.0000201,0.0000000,0.0000000,0.0000040,0.0000000,0.0000000,0.0000000,0.0000201,0.0000000,0.0000000,0.0000040
483.5112690,1.0001501,,-0.9991259,0.0417194,-0.0014327,0.0022051,-0.0036990,-0.0005232,0.0037883,,,,0.2118174,4.8160572,-15.9049530,0.0000000,0.0000000,0.0000000,0.0200030,0.0002021,0.0000000,0.0000000,0.0000202,0.0000000,0.0000000,0.0000000,0.0002021,0.0000000,0.0000000,0.0000202,0.0000000,0.0000000,0.0000000,0.0002021,0.0000000,0.0000000,0.0000202,0.0000202,0.0000000,0.0000000,0.0000040,0.0000000,0.0000000,0.0000000,0.0000202,0.0000000,0.0000000,0.0000040,0.0000000,0.0000000,0.0000000,0.0000202,0.0000000,0.0000000,0.0000040
483.5300130,1.0002501,,-0.9991259,0.0417194,-0.0014278,0.0022056,0.0026823,-0.0026343,-0.0054301,,,,0.2118174,4.8160572,-15.9049530,0.0000000,0.0000000,0.0000000,0.0200050,0.0002029,0.0000000,0.0000000,0.0000203,0.0000000,0.0000000,0.0000000,0.0002029,0.0000000,0.0000000,0.0000203,0.0000000,0.0000000,0.0000000,0.0002029,0.0000000,0.0000000,0.0000203,0.0000203,0.0000000,0.0000000,0.0000040,0.0000000,0.0000000,0.0000000,0.0000203,0.0000000,0.0000000,0.0000040,0.0000000,0.0000000,0.0000000,0.0000203,0.0000000,0.0000000,0.0000040
483.5460180,,1.0000100,-0.9991259,0.0417194,-0.0014278,0.0022056,,,,0.0000000,0.0000000,0.0000000,0.2118174,4.8160572,-15.9049530,0.0000000,0.0000000,0.0000000,0.1000010,0.0001988,0.0000000,0.0000000,0.0000199,0.0000000,0.0000000,0.0000000,0.0001988,0.0000000,0.0000000,0.0000199,0.0000000,0.0000000,0.0000000,0.0001988,0.0000000,0.0000000,0.0000199,0.0000199,0.0000000,0.0000000,0.0000040,0.0000000,0.0000000,0.0000000,0.0000199,0.0000000,0.0000000,0.0000040,0.0000000,0.0000000,0.0000000,0.0000199,0.0000000,0.0000000,0.0000040
483.5597150,0.9999000,,-0.9991258,0.0417194,-0.0014560,0.0022072,0.0041030,-0.0034381,-0.0073537,,,,0.2118174,4.8160572,-15.9049530,0.0000000,0.0000000,0.0000000,0.0199980,0.0001996,0.0000000,0.0000000,0.0000199,0.0000000,0.0000000,0.0000000,0.0001996,0.0000000,0.0000000,0.0000199,0.0000000,0.0000000,0.0000000,0.0001996,0.0000000,0.0000000,0.0000199,0.0000199,0.0000000,0.0000000,0.0000040,0.0000000,0.0000000,0.0000000,0.0000199,0.0000000,0.0000000,0.0000040,0.0000000,0.0000000,0.0000000,0.0000199,0.0000000,0.0000000,0.0000040
483.5728040,1.1496500,,-0.9991258,0.0417193,-0.0014901,0.0022025,0.0052635,0.0037207,-0.0041651,,,,0.2118174,4.8160572,-15.9049530,0.0000000,0.0000000,0.0000000,0.0229930,0.0002005,0.0000000,0.0000000,0.0000200,0.0000000,0.0000000,0.0000000,0.0002005,0.0000000,0.0000000,0.0000200,0.0000000,0.0000000,0.0000000,0.0002005,0.0000000,0.0000000,0.0000200,0.0000200,0.0000000,0.0000000,0.0000040,0.0000000,0.0000000,0.0000000,0.0000200,0.0000000,0.0000000,0.0000040,0.0000000,0.0000000,0.0000000,0.0000200,0.0000000,0.0000000,0.0000040
483.5952390,1.0500500,,-0.9991258,0.0417193,-0.0015101,0.0022102,-0.0009999,0.0024325,-0.0020826,,,,0.2118174,4.8160572,-15.9049530,0.0000000,0.0000000,0.0000000,0.0210010,0.0002014,0.0000000,0.0000000,0.0000201,0.0000000,0.0000000,0.0000000,0.0002014,0.0000000,0.0000000,0.0000201,0.0000000,0.0000000,0.0000000,0.0002014,0.0000000,0.0000000,0.0000201,0.0000201,0.0000000,0.0000000,0.0000040,0.0000000,0.0000000,0.0000000,0.0000201,0.0000000,0.0000000,0.0000040,0.0000000,0.0000000,0.0000000,0.0000201,0.0000000,0.0000000,0.0000040
483.6138110,1.0000000,,-0.9991257,0.0417193,-0.0015296,0.0022369,0.0000036,-0.0018279,-0.0007971,,,,0.2118174,4.8160572,-15.9049530,0.0000000,0.0000000,0.0000000,0.0200000,0.0002022,0.0000000,0.0000000,0.0000202,0.0000000,0.0000000,0.0000000,0.0002022,0.0000000,0.0000000,0.0000202,0.0000000,0.0000000,0.0000000,0.0002022,0.0000000,0.0000000,0.0000202,0.0000202,0.0000000,0.0000000,0.0000040,0.0000000,0.0000000,0.0000000,0.0000202,0.0000000,0.0000000,0.0000040,0.0000000,0.0000000,0.0000000,0.0000202,0.0000000,0.0000000,0.0000040
483.6338530,1.0000000,,-0.9991257,0.0417193,-0.0015408,0.0022499,-0.0043775,0.0021455,0.0074139,,,,0.2118174,4.8160572,-15.9049530,0.0000000,0.0000000,0.0000000,0.0200000,0.0002030,0.0000000,0.0000000,0.0000203,0.0000000,0.0000000,0.0000000,0.0002030,0.0000000,0.0000000,0.0000203,0.0000000,0.0000000,0.0000000,0.0002030,0.0000000,0.0000000,0.0000203,0.0000203,0.0000000,0.0000000,0.0000040,0.0000000,0.0000000,0.0000000,0.0000203,0.0000000,0.0000000,0.0000040,0.0000000,0.0000000,0.0000000,0.0000203,0.0000000,0.0000000,0.0000040
483.6498580,,1.0000000,-0.9991257,0.0417193,-0.0015408,0.0022499,,,,0.0000000,0.0000000,0.0000000,0.2118174,4.8160572,-15.9049530,0.0000000,0.0000000,0.0000000,0.1000000,0.0001990,0.0000000,0.0000000,0.0000199,0.0000000,0.0000000,0.0000000,0.0001990,0.0000000,0.0000000,0.0000199,0.0000000,0.0000000,0.0000000,0.0001990,0.0000000,0.0000000,0.0000199,0.0000199,0.0000000,0.0000000,0.0000040,0.0000000,0.0000000,0.0000000,0.0000199,0.0000000,0.0000000,0.0000040,0.0000000,0.0000000,0.0000000,0.0000199,0.0000000,0.0000000,0.0000040
483.6636790,1.0000000,,-0.9991256,0.0417193,-0.0015473,0.0022572,-0.0046225,0.0041397,0.0024863,,,,0.2118174,4.8160572,-15.9049530,0.0000000,0.0000000,0.0000000,0.0200000,0.0001998,0.0000000,0.0000000,0.0000200,0.0000000,0.0000000,0.0000000,0.0001998,0.0000000,0.0000000,0.0000200,0.0000000,0.0000000,0.0000000,0.0001998,0.0000000,0.0000000,0.0000200,0.0000200,0.0000000,0.0000000,0.0000040,0.0000000,0.0000000,0.0000000,0.0000200,0.0000000,0.0000000,0.0000040,0.0000000,0.0000000,0.0000000,0.0000200,0.0000000,0.0000000,0.0000040
483.6766760,1.1505500,,-0.9991255,0.0417192,-0.0015834,0.0022650,0.0027623,-0.0021797,0.0017238,,,,0.2118174,4.8160572,-15.9049530,0.0000000,0.0000000,0.0000000,0.0230110,0.0002007,0.0000000,0.0000000,0.0000201,0.0000000,0.0000000,0.0000000,0.0002007,0.0000000,0.0000000,0.0000201,0.0000000,0.0000000,0.0000000,0.0002007,0.0000000,0.0000000,0.0000201,0.0000201,0.0000000,0.0000000,0.0000040,0.0000000,0.0000000,0.0000000,0.0000201,0.0000000,0.0000000,0.0000040,0.0000000,0.0000000,0.0000000,0.0000201,0.0000000,0.0000000,0.0000040
483.6965910,0.9995000,,-0.9991256,0.0417193,-0.0015685,0.0022634,0.0026095,-0.0068195,-0.0008471,,,,0.2118174,4.8160572,-15.9049530,0.0000000,0.0000000,0.0000000,0.0199900,0.0002015,0.0000000,0.0000000,0.0000201,0.0000000,0.0000000,0.0000000,0.0002015,0.0000000,0.0000000,0.0000201,0.0000000,0.0000000,0.0000000,0.0002015,0.0000000,0.0000000,0.0000201,0.0000201,0.0000000,0.0000000,0.0000040,0.0000000,0.0000000,0.0000000,0.0000201,0.0000000,0.0000000,0.0000040,0.0000000,0.0000000,0.0000000,0.0000201,0.0000000,0.0000000,0.0000040
483.7177260,1.0500000,,-0.9991256,0.0417192,-0.0015864,0.0022598,0.0090791,-0.0008387,0.0037192,,,,0.2118174,4.8160572,-15.9049530,0.0000000,0.0000000,0.0000000,0.0210000,0.0002023,0.0000000,0.0000000,0.0000202,0.0000000,0.0000000,0.0000000,0.0002023,0.0000000,0.0000000,0.0000202,0.0000000,0.0000000,0.0000000,0.0002023,0.0000000,0.0000000,0.0000202,0.0000202,0.0000000,0.0000000,0.0000040,0.0000000,0.0000000,0.0000000,0.0000202,0.0000000,0.0000000,0.0000040,0.0000000,0.0000000,0.0000000,0.0000202,0.0000000,0.0000000,0.0000040
483.7388840,1.0499500,,-0.9991256,0.0417192,-0.0015848,0.0022536,0.0013428,0.0004275,0.0089397,,,,0.2118174,4.8160572,-15.9049530,0.0000000,0.0000000,0.0000000,0.0209990,0.0002032,0.0000000,0.0000000,0.0000203,0.0000000,0.0000000,0.0000000,0.0002032,0.0000000,0.0000000,0.0000203,0.0000000,0.0000000,0.0000000,0.0002032,0.0000000,0.0000000,0.0000203,0.0000203,0.0000000,0.0000000,0.0000040,0.0000000,0.0000000,0.0000000,0.0000203,0.0000000,0.0000000,0.0000040,0.0000000,0.0000000,0.0000000,0.0000203,0.0000000,0.0000000,0.0000040
483.7547490,,0.9999900,-0.9991256,0.0417192,-0.0015848,0.0022536,,,,0.0000000,0.0000000,0.0000000,0.2118174,4.8160572,-15.9049530,0.0000000,0.0000000,0.0000000,0.0999990,0.0001991,0.0000000,0.0000000,0.0000199,0.0000000,0.0000000,0.0000000,0.0001991,0.0000000,0.0000000,0.0000199,0.0000000,0.0000000,0.0000000,0.0001991,0.0000000,0.0000000,0.0000199,0.0000199,0.0000000,0.0000000,0.0000040,0.0000000,0.0000000,0.0000000,0.0000199,0.0000000,0.0000000,0.0000040,0.0000000,0.0000000,0.0000000,0.0000199,0.0000000,0.0000000,0.0000040
483.7688030,1.0000000,,-0.9991257,0.0417192,-0.0015774,0.0022305,-0.0037307,0.0041963,0.0105734,,,,0.2118174,4.8160572,-15.9049530,0.0000000,0.0000000,0.0000000,0.0200000,0.0001999,0.0000000,0.0000000,0.0000200,0.0000000,0.0000000,0.0000000,0.0001999,0.0000000,0.0000000,0.0000200,0.0000000,0.0000000,0.0000000,0.0001999,0.0000000,0.0000000,0.0000200,0.0000200,0.0000000,0.0000000,0.0000040,0.0000000,0.0000000,0.0000000,0.0000200,0.0000000,0.0000000,0.0000040,0.0000000,0.0000000,0.0000000,0.0000200,0.0000000,0.0000000,0.0000040
483.7815960,1.1499500,,-0.9991257,0.0417193,-0.0015672,0.0022315,-0.0042991,-0.0007323,0.0021129,,,,0.2118174,4.8160572,-15.9049530,0.0000000,0.0000000,0.0000000,0.0229990,0.0002008,0.0000000,0.0000000,0.0000201,0.0000000,0.0000000,0.0000000,0.0002008,0.0000000,0.0000000,0.0000201,0.0000000,0.0000000,0.0000000,0.0002008,0.0000000,0.0000000,0.0000201,0.0000201,0.0000000,0.0000000,0.0000040,0.0000000,0.0000000,0.0000000,0.0000201,0.0000000,0.0000000,0.0000040,0.0000000,0.0000000,0.0000000,0.0000201,0.0000000,0.0000000,0.0000040
483.8029820,1.0505000,,-0.9991257,0.0417193,-0.0015413,0.0022093,-0.0062542,-0.0003128,0.0000799,,,,0.2118174,4.8160572,-15.9049530,0.0000000,0.0000000,0.0000000,0.0210100,0.0002017,0.0000000,0.0000000,0.0000202,0.0000000,0.0000000,0.0000000,0.0002017,0.0000000,0.0000000,0.0000202,0.0000000,0.0000000,0.0000000,0.0002017,0.0000000,0.0000000,0.0000202,0.0000202,0.0000000,0.0000000,0.0000040,0.0000000,0.0000000,0.0000000,0.0000202,0.0000000,0.0000000,0.0000040,0.0000000,0.0000000,0.0000000,0.0000202,0.0000000,0.0000000,0.0000040
483.8228080,0.9996000,,-0.9991258,0.0417193,-0.0015266,0.0021955,-0.0077200,0.0003777,0.0027255,,,,0.2118174,4.8160572,-15.9049530,0.0000000,0.0000000,0.0000000,0.0199920,0.0002025,0.0000000,0.0000000,0.0000202,0.0000000,0.0000000,0.0000000,0.0002025,0.0000000,0.0000000,0.0000202,0.0000000,0.0000000,0.0000000,0.0002025,0.0000000,0.0000000,0.0000202,0.0000202,0.0000000,0.0000000,0.0000040,0.0000000,0.0000000,0.0000000,0.0000202,0.0000000,0.0000000,0.0000040,0.0000000,0.0000000,0.0000000,0.0000202,0.0000000,0.0000000,0.0000040
483.8441240,,1.0099800,-0.9991258,0.0417193,-0.0015205,0.0021983,,,,0.0000000,0.0000000,0.0000000,0.2118174,4.8160572,-15.9049530,0.0000000,0.0000000,0.0000000,0.1009980,0.0001985,0.0000000,0.0000000,0.0000198,0.0000000,0.0000000,0.0000000,0.0001985,0.0000000,0.0000000,0.0000198,0.0000000,0.0000000,0.0000000,0.0001985,0.0000000,0.0000000,0.0000198,0.0000198,0.0000000,0.0000000,0.0000040,0.0000000,0.0000000,0.0000000,0.0000198,0.0000000,0.0000000,0.0000040,0.0000000,0.0000000,0.0000000,0.0000198,0.0000000,0.0000000,0.0000040
483.8588040,1.0002000,,-0.9991258,0.0417193,-0.0015205,0.0021983,-0.0003962,-0.0063343,-0.0035201,,,,0.2118174,4.8160572,-15.9049530,0.0000000,0.0000000,0.0000000,0.0200040,0.0001993,0.0000000,0.0000000,0.0000199,0.0000000,0.0000000,0.0000000,0.0001993,0.0000000,0.0000000,0.0000199,0.0000000,0.0000000,0.0000000,0.0001993,0.0000000,0.0000000,0.0000199,0.0000199,0.0000000,0.0000000,0.0000040,0.0000000,0.0000000,0.0000000,0.0000199,0.0000000,0.0000000,0.0000040,0.0000000,0.0000000,0.0000000,0.0000199,0.0000000,0.0000000,0.0000040
483.8719680,1.4497501,,-0.9991257,0.0417193,-0.0015404,0.0022133,-0.0026395,-0.0025797,-0.0029807,,,,0.2118174,4.8160572,-15.9049530,0.0000000,0.0000000,0.0000000,0.0289950,0.0002004,0.0000000,0.0000000,0.0000200,0.0000000,0.0000000,0.0000000,0.0002004,0.0000000,0.0000000,0.0000200,0.0000000,0.0000000,0.0000000,0.0002004,0.0000000,0.0000000,0.0000200,0.0000200,0.0000000,0.0000000,0.0000040,0.0000000,0.0000000,0.0000000,0.0000200,0.0000000,0.0000000,0.0000040,0.0000000,0.0000000,0.0000000,0.0000200,0.0000000,0.0000000,0.0000040
483.8919770,1.0001501,,-0.9991257,0.0417194,-0.0015324,0.0022254,-0.0078734,0.0015025,-0.0022228,,,,0.2118174,4.8160572,-15.9049530,0.0000000,0.0000000,0.0000000,0.0200030,0.0002012,0.0000000,0.0000000,0.0000201,0.0000000,0.0000000,0.0000000,0.0002012,0.0000000,0.0000000,0.0000201,0.0000000,0.0000000,0.0000000,0.0002012,0.0000000,0.0000000,0.0000201,0.0000201,0.0000000,0.0000000,0.0000040,0.0000000,0.0000000,0.0000000,0.0000201,0.0000000,0.0000000,0.0000040,0.0000000,0.0000000,0.0000000,0.0000201,0.0000000,0.0000000,0.0000040
483.9116780,0.9998500,,-0.9991257,0.0417194,-0.0015278,0.0022265,0.0039139,0.0006063,-0.0001348,,,,0.2118174,4.8160572,-15.9049530,0.0000000,0.0000000,0.0000000,0.0199970,0.0002020,0.0000000,0.0000000,0.0000202,0.0000000,0.0000000,0.0000000,0.0002020,0.0000000,0.0000000,0.0000202,0.0000000,0.0000000,0.0000000,0.0002020,0.0000000,0.0000000,0.0000202,0.0000202,0.0000000,0.0000000,0.0000040,0.0000000,0.0000000,0.0000000,0.0000202,0.0000000,0.0000000,0.0000040,0.0000000,0.0000000,0.0000000,0.0000202,0.0000000,0.0000000,0.0000040
483.9327010,1.0500000,,-0.9991257,0.0417195,-0.0015062,0.0022230,-0.0028495,0.0013636,0.0001767,,,,0.2118174,4.8160572,-15.9049530,0.0000000,0.0000000,0.0000000,0.0210000,0.0002029,0.0000000,0.0000000,0.0000203,0.0000000,0.0000000,0.0000000,0.0002029,0.0000000,0.0000000,0.0000203,0.0000000,0.0000000,0.0000000,0.0002029,0.0000000,0.0000000,0.0000203,0.0000203,0.0000000,0.0000000,0.0000040,0.0000000,0.0000000,0.0000000,0.0000203,0.0000000,0.0000000,0.0000040,0.0000000,0.0000000,0.0000000,0.0000203,0.0000000,0.0000000,0.0000040
483.9490450,,1.0001000,-0.9991257,0.0417195,-0.0015062,0.0022230,,,,0.0000000,0.0000000,0.0000000,0.2118174,4.8160572,-15.9049530,0.0000000,0.0000000,0.0000000,0.1000100,0.0001988,0.0000000,0.0000000,0.0000199,0.0000000,0.0000000,0.0000000,0.0001988,0.0000000,0.0000000,0.0000199,0.0000000,0.0000000,0.0000000,0.0001988,0.0000000,0.0000000,0.0000199,0.0000199,0.0000000,0.0000000,0.0000040,0.0000000,0.0000000,0.0000000,0.0000199,0.0000000,0.0000000,0.0000040,0.0000000,0.0000000,0.0000000,0.0000199,0.0000000,0.0000000,0.0000040
483.9627440,1.1002001,,-0.9991257,0.0417195,-0.0015037,0.0022394,-0.0006313,0.0025129,0.0020415,,,,0.2118174,4.8160572,-15.9049530,0.0000000,0.0000000,0.0000000,0.0220040,0.0001997,0.0000000,0.0000000,0.0000200,0.0000000,0.0000000,0.0000000,0.0001997,0.0000000,0.0000000,0.0000200,0.0000000,0.0000000,0.0000000,0.0001997,0.0000000,0.0000000,0.0000200,0.0000200,0.0000000,0.0000000,0.0000040,0.0000000,0.0000000,0.0000000,0.0000200,0.0000000,0.0000000,0.0000040,0.0000000,0.0000000,0.0000000,0.0000200,0.0000000,0.0000000,0.0000040
483.9758840,1.0497501,,-0.9991257,0.0417195,-0.0015017,0.0022270,-0.0004988,0.0030493,0.0049270,,,,0.2118174,4.8160572,-15.9049530,0.0000000,0.0000000,0.0000000,0.0209950,0.0002005,0.0000000,0.0000000,0.0000200,0.0000000,0.0000000,0.0000000,0.0002005,0.0000000,0.0000000,0.0000200,0.0000000,0.0000000,0.0000000,0.0002005,0.0000000,0.0000000,0.0000200,0.0000200,0.0000000,0.0000000,0.0000040,0.0000000,0.0000000,0.0000000,0.0000200,0.0000000,0.0000000,0.0000040,0.0000000,0.0000000,0.0000000,0.0000200,0.0000000,0.0000000,0.0000040
483.9958560,1.0003999,,-0.9991257,0.0417195,-0.0015136,0.0022086,0.0071130,0.0050037,0.0051490,,,,0.2118174,4.8160572,-15.9049530,0.0000000,0.0000000,0.0000000,0.0200080,0.0002013,0.0000000,0.0000000,0.0000201,0.0000000,0.0000000,0.0000000,0.0002013,0.0000000,0.0000000,0.0000201,0.0000000,0.0000000,0.0000000,0.0002013,0.0000000,0.0000000,0.0000201,0.0000201,0.0000000,0.0000000,0.0000040,0.0000000,0.0000000,0.0000000,0.0000201,0.0000000,0.0000000,0.0000040,0.0000000,0.0000000,0.0000000,0.0000201,0.0000000,0.0000000,0.0000040
484.0155720,0.9996500,,-0.9991258,0.0417195,-0.0015028,0.0021958,0.0021603,0.0042642,0.0037952,,,,0.2118174,4.8160572,-15.9049530,0.0000000,0.0000000,0.0000000,0.0199930,0.0002022,0.0000000,0.0000000,0.0000202,0.0000000,0.0000000,0.0000000,0.0002022,0.0000000,0.0000000,0.0000202,0.0000000,0.0000000,0.0000000,0.0002022,0.0000000,0.0000000,0.0000202,0.0000202,0.0000000,0.0000000,0.0000040,0.0000000,0.0000000,0.0000000,0.0000202,0.0000000,0.0000000,0.0000040,0.0000000,0.0000000,0.0000000,0.0000202,0.0000000,0.0000000,0.0000040
484.0365260,1.0500000,,-0.9991258,0.0417195,-0.0014840,0.0021995,0.0002028,-0.0009730,0.0004328,,,,0.2118174,4.8160572,-15.9049530,0.0000000,0.0000000,0.0000000,0.0210000,0.0002030,0.0000000,0.0000000,0.0000203,0.0000000,0.0000000,0.0000000,0.0002030,0.0000000,0.0000000,0.0000203,0.0000000,0.0000000,0.0000000,0.0002030,0.0000000,0.0000000,0.0000203,0.0000203,0.0000000,0.0000000,0.0000040,0.0000000,0.0000000,0.0000000,0.0000203,0.0000000,0.0000000,0.0000040,0.0000000,0.0000000,0.0000000,0.0000203,0.0000000,0.0000000,0.0000040
484.0526900,,0.9999900,-0.9991258,0.0417195,-0.0014840,0.0021995,,,,0.0000000,0.0000000,0.0000000,0.2118174,4.8160572,-15.9049530,0.0000000,0.0000000,0.0000000,0.0999990,0.0001990,0.0000000,0.0000000,0.0000199,0.0000000,0.0000000,0.0000000,0.0001990,0.0000000,0.0000000,0.0000199,0.0000000,0.0000000,0.0000000,0.0001990,0.0000000,0.0000000,0.0000199,0.0000199,0.0000000,0.0000000,0.0000040,0.0000000,0.0000000,0.0000000,0.0000199,0.0000000,0.0000000,0.0000040,0.0000000,0.0000000,0.0000000,0.0000199,0.0000000,0.0000000,0.0000040
484.0662550,1.1000500,,-0.9991258,0.0417195,-0.0014854,0.0021979,0.0035957,-0.0009138,-0.0027133,,,,0.2118174,4.8160572,-15.9049530,0.0000000,0.0000000,0.0000000,0.0220010,0.0001998,0.0000000,0.0000000,0.0000200,0.0000000,0.0000000,0.0000000,0.0001998,0.0000000,0.0000000,0.0000200,0.0000000,0.0000000,0.0000000,0.0001998,0.0000000,0.0000000,0.0000200,0.0000200,0.0000000,0.0000000,0.0000040,0.0000000,0.0000000,0.0000000,0.0000200,0.0000000,0.0000000,0.0000040,0.0000000,0.0000000,0.0000000,0.0000200,0.0000000,0.0000000,0.0000040
484.0799270,1.0501001,,-0.9991258,0.0417196,-0.0014686,0.0022018,0.0062992,0.0001001,-0.0052629,,,,0.2118174,4.8160572,-15.9049530,0.0000000,0.0000000,0.0000000,0.0210020,0.0002007,0.0000000,0.0000000,0.0000201,0.0000000,0.0000000,0.0000000,0.0002007,0.0000000,0.0000000,0.0000201,0.0000000,0.0000000,0.0000000,0.0002007,0.0000000,0.0000000,0.0000201,0.0000201,0.0000000,0.0000000,0.0000040,0.0000000,0.0000000,0.0000000,0.0000201,0.0000000,0.0000000,0.0000040,0.0000000,0.0000000,0.0000000,0.0000201,0.0000000,0.0000000,0.0000040
484.0997090,1.0002999,,-0.9991258,0.0417196,-0.0014571,0.0022066,0.0049730,0.0020794,-0.0009225,,,,0.2118174,4.8160572,-15.9049530,0.0000000,0.0000000,0.0000000,0.0200060,0.0002015,0.0000000,0.0000000,0.0000201,0.0000000,0.0000000,0.0000000,0.0002015,0.0000000,0.0000000,0.0000201,0.0000000,0.0000000,0.0000000,0.0002015,0.0000000,0.0000000,0.0000201,0.0000201,0.0000000,0.0000000,0.0000040,0.0000000,0.0000000,0.0000000,0.0000201,0.0000000,0.0000000,0.0000040,0.0000000,0.0000000,0.0000000,0.0000201,0.0000000,0.0000000,0.0000040
484.1207620,1.0496000,,-0.9991258,0.0417197,-0.0014496,0.0022044,-0.0010535,0.0023291,0.0007595,,,,0.2118174,4.8160572,-15.9049530,0.0000000,0.0000000,0.0000000,0.0209920,0.0002023,0.0000000,0.0000000,0.0000202,0.0000000,0.0000000,0.0000000,0.0002023,0.0000000,0.0000000,0.0000202,0.0000000,0.0000000,0.0000000,0.0002023,0.0000000,0.0000000,0.0000202,0.0000202,0.0000000,0.0000000,0.0000040,0.0000000,0.0000000,0.0000000,0.0000202,0.0000000,0.0000000,0.0000040,0.0000000,0.0000000,0.0000000,0.0000202,0.0000000,0.0000000,0.0000040
484.1416860,1.0499500,,-0.9991258,0.0417197,-0.0014407,0.0022145,0.0042416,0.0041858,0.0030653,,,,0.2118174,4.8160572,-15.9049530,0.0000000,0.0000000,0.0000000,0.0209990,0.0002032,0.0000000,0.0000000,0.0000203,0.0000000,0.0000000,0.0000000,0.0002032,0.0000000,0.0000000,0.0000203,0.0000000,0.0000000,0.0000000,0.0002032,0.0000000,0.0000000,0.0000203,0.0000203,0.0000000,0.0000000,0.0000040,0.0000000,0.0000000,0.0000000,0.0000203,0.0000000,0.0000000,0.0000040,0.0000000,0.0000000,0.0000000,0.0000203,0.0000000,0.0000000,0.0000040
484.1577620,,1.0199300,-0.9991258,0.0417197,-0.0014407,0.0022145,,,,0.0000000,0.0000000,0.0000000,0.2118174,4.8160572,-15.9049530,0.0000000,0.0000000,0.0000000,0.1019930,0.0001991,0.0000000,0.0000000,0.0000199,0.0000000,0.0000000,0.0000000,0.0001991,0.0000000,0.0000000,0.0000199,0.0000000,0.0000000,0.0000000,0.0001991,0.0000000,0.0000000,0.0000199,0.0000199,0.0000000,0.0000000,0.0000040,0.0000000,0.0000000,0.0000000,0.0000199,0.0000000,0.0000000,0.0000040,0.0000000,0.0000000,0.0000000,0.0000199,0.0000000,0.0000000,0.0000040
484.1713170,1.1001000,,-0.9991258,0.0417198,-0.0014291,0.0022318,0.0000685,0.0009866,0.0015326,,,,0.2118174,4.8160572,-15.9049530,0.0000000,0.0000000,0.0000000,0.0220020,0.0002000,0.0000000,0.0000000,0.0000200,0.0000000,0.0000000,0.0000000,0.0002000,0.0000000,0.0000000,0.0000200,0.0000000,0.0000000,0.0000000,0.0002000,0.0000000,0.0000000,0.0000200,0.0000200,0.0000000,0.0000000,0.0000040,0.0000000,0.0000000,0.0000000,0.0000200,0.0000000,0.0000000,0.0000040,0.0000000,0.0000000,0.0000000,0.0000200,0.0000000,0.0000000,0.0000040
484.1848710,1.0501500,,-0.9991258,0.0417198,-0.0013969,0.0022361,-0.0017205,0.0025456,0.0027194,,,,0.2118174,4.8160572,-15.9049530,0.0000000,0.0000000,0.0000000,0.0210030,0.0002008,0.0000000,0.0000000,0.0000201,0.0000000,0.0000000,0.0000000,0.0002008,0.0000000,0.0000000,0.0000201,0.0000000,0.0000000,0.0000000,0.0002008,0.0000000,0.0000000,0.0000201,0.0000201,0.0000000,0.0000000,0.0000040,0.0000000,0.0000000,0.0000000,0.0000201,0.0000000,0.0000000,0.0000040,0.0000000,0.0000000,0.0000000,0.0000201,0.0000000,0.0000000,0.0000040
484.2046360,1.0002000,,-0.9991260,0.0417199,-0.0013716,0.0022153,-0.0067501,0.0098711,0.0077074,,,,0.2118174,4.8160572,-15.9049530,0.0000000,0.0000000,0.0000000,0.0200040,0.0002016,0.0000000,0.0000000,0.0000201,0.0000000,0.0000000,0.0000000,0.0002016,0.0000000,0.0000000,0.0000201,0.0000000,0.0000000,0.0000000,0.0002016,0.0000000,0.0000000,0.0000201,0.0000201,0.0000000,0.0000000,0.0000040,0.0000000,0.0000000,0.0000000,0.0000201,0.0000000,0.0000000,0.0000040,0.0000000,0.0000000,0.0000000,0.0000201,0.0000000,0.0000000,0.0000040
484.2257950,1.0495499,,-0.9991260,0.0417199,-0.0013677,0.0022036,0.0014620,0.0064538,-0.0000526,,,,0.2118174,4.8160572,-15.9049530,0.0000000,0.0000000,0.0000000,0.0209910,0.0002025,0.0000000,0.0000000,0.0000202,0.0000000,0.0000000,0.0000000,0.0002025,0.0000000,0.0000000,0.0000202,0.0000000,0.0000000,0.0000000,0.0002025,0.0000000,0.0000000,0.0000202,0.0000202,0.0000000,0.0000000,0.0000040,0.0000000,0.0000000,0.0000000,0.0000202,0.0000000,0.0000000,0.0000040,0.0000000,0.0000000,0.0000000,0.0000202,0.0000000,0.0000000,0.0000040
484.2466910,,1.0100000,-0.9991260,0.0417199,-0.0013772,0.0021964,,,,0.0000000,0.0000000,0.0000000,0.2118174,4.8160572,-15.9049530,0.0000000,0.0000000,0.0000000,0.1010000,0.0001985,0.0000000,0.0000000,0.0000198,0.0000000,0.0000000,0.0000000,0.0001985,0.0000000,0.0000000,0.0000198,0.0000000,0.0000000,0.0000000,0.0001985,0.0000000,0.0000000,0.0000198,0.0000198,0.0000000,0.0000000,0.0000040,0.0000000,0.0000000,0.0000000,0.0000198,0.0000000,0.0000000,0.0000040,0.0000000,0.0000000,0.0000000,0.0000198,0.0000000,0.0000000,0.0000040
484.2606080,1.1002001,,-0.9991260,0.0417199,-0.0013772,0.0021964,0.0026154,0.0079190,0.0004620,,,,0.2118174,4.8160572,-15.9049530,0.0000000,0.0000000,0.0000000,0.0220040,0.0001993,0.0000000,0.0000000,0.0000199,0.0000000,0.0000000,0.0000000,0.0001993,0.0000000,0.0000000,0.0000199,0.0000000,0.0000000,0.0000000,0.0001993,0.0000000,0.0000000,0.0000199,0.0000199,0.0000000,0.0000000,0.0000040,0.0000000,0.0000000,0.0000000,0.0000199,0.0000000,0.0000000,0.0000040,0.0000000,0.0000000,0.0000000,0.0000199,0.0000000,0.0000000,0.0000040
484.2738270,1.2998000,,-0.9991260,0.0417198,-0.0014101,0.0021762,0.0011780,0.0005644,0.0058462,,,,0.2118174,4.8160572,-15.9049530,0.0000000,0.0000000,0.0000000,0.0259960,0.0002004,0.0000000,0.0000000,0.0000200,0.0000000,0.0000000,0.0000000,0.0002004,0.0000000,0.0000000,0.0000200,0.0000000,0.0000000,0.0000000,0.0002004,0.0000000,0.0000000,0.0000200,0.0000200,0.0000000,0.0000000,0.0000040,0.0000000,0.0000000,0.0000000,0.0000200,0.0000000,0.0000000,0.0000040,0.0000000,0.0000000,0.0000000,0.0000200,0.0000000,0.0000000,0.0000040
484.2947610,1.0500000,,-0.9991260,0.0417198,-0.0013965,0.0021804,-0.0014328,0.0025252,0.0041438,,,,0.2118174,4.8160572,-15.9049530,0.0000000,0.0000000,0.0000000,0.0210000,0.0002012,0.0000000,0.0000000,0.0000201,0.0000000,0.0000000,0.0000000,0.0002012,0.0000000,0.0000000,0.0000201,0.0000000,0.0000000,0.0000000,0.0002012,0.0000000,0.0000000,0.0000201,0.0000201,0.0000000,0.0000000,0.0000040,0.0000000,0.0000000,0.0000000,0.0000201,0.0000000,0.0000000,0.0000040,0.0000000,0.0000000,0.0000000,0.0000201,0.0000000,0.0000000,0.0000040
484.3172090,1.0504500,,-0.9991260,0.0417199,-0.0013882,0.0021942,-0.0063927,-0.0023308,0.0030485,,,,0.2118174,4.8160572,-15.9049530,0.0000000,0.0000000,0.0000000,0.0210090,0.0002021,0.0000000,0.0000000,0.0000202,0.0000000,0.0000000,0.0000000,0.0002021,0.0000000,0.0000000,0.0000202,0.0000000,0.0000000,0.0000000,0.0002021,0.0000000,0.0000000,0.0000202,0.0000202,0.0000000,0.0000000,0.0000040,0.0000000,0.0000000,0.0000000,0.0000202,0.0000000,0.0000000,0.0000040,0.0000000,0.0000000,0.0000000,0.0000202,0.0000000,0.0000000,0.0000040
484.3358080,1.0001000,,-0.9991260,0.0417199,-0.0013840,0.0021882,-0.0032574,0.0008335,0.0029891,,,,0.2118174,4.8160572,-15.9049530,0.0000000,0.0000000,0.0000000,0.0200020,0.0002029,0.0000000,0.0000000,0.0000203,0.0000000,0.0000000,0.0000000,0.0002029,0.0000000,0.0000000,0.0000203,0.0000000,0.0000000,0.0000000,0.0002029,0.0000000,0.0000000,0.0000203,0.0000203,0.0000000,0.0000000,0.0000040,0.0000000,0.0000000,0.0000000,0.0000203,0.0000000,0.0000000,0.0000040,0.0000000,0.0000000,0.0000000,0.0000203,0.0000000,0.0000000,0.0000040
484.3516560,,1.0200399,-0.9991260,0.0417199,-0.0013840,0.0021882,,,,0.0000000,0.0000000,0.0000000,0.2118174,4.8160572,-15.9049530,0.0000000,0.0000000,0.0000000,0.1020040,0.0001988,0.0000000,0.0000000,0.0000199,0.0000000,0.0000000,0.0000000,0.0001988,0.0000000,0.0000000,0.0000199,0.0000000,0.0000000,0.0000000,0.0001988,0.0000000,0.0000000,0.0000199,0.0000199,0.0000000,0.0000000,0.0000040,0.0000000,0.0000000,0.0000000,0.0000199,0.0000000,0.0000000,0.0000040,0.0000000,0.0000000,0.0000000,0.0000199,0.0000000,0.0000000,0.0000040
484.3646940,0.9998000,,-0.9991260,0.0417198,-0.0013889,0.0021619,-0.0014608,0.0040789,0.0024711,,,,0.2118174,4.8160572,-15.9049530,0.0000000,0.0000000,0.0000000,0.0199960,0.0001996,0.0000000,0.0000000,0.0000199,0.0000000,0.0000000,0.0000000,0.0001996,0.0000000,0.0000000,0.0000199,0.0000000,0.0000000,0.0000000,0.0001996,0.0000000,0.0000000,0.0000199,0.0000199,0.0000000,0.0000000,0.0000040,0.0000000,0.0000000,0.0000000,0.0000199,0.0000000,0.0000000,0.0000040,0.0000000,0.0000000,0.0000000,0.0000199,0.0000000,0.0000000,0.0000040
484.3778570,1.0996500,,-0.9991260,0.0417198,-0.0014015,0.0021679,-0.0013179,-0.0069556,0.0014797,,,,0.2118174,4.8160572,-15.9049530,0.0000000,0.0000000,0.0000000,0.0219930,0.0002005,0.0000000,0.0000000,0.0000200,0.0000000,0.0000000,0.0000000,0.0002005,0.0000000,0.0000000,0.0000200,0.0000000,0.0000000,0.0000000,0.0002005,0.0000000,0.0000000,0.0000200,0.0000200,0.0000000,0.0000000,0.0000040,0.0000000,0.0000000,0.0000000,0.0000200,0.0000000,0.0000000,0.0000040,0.0000000,0.0000000,0.0000000,0.0000200,0.0000000,0.0000000,0.0000040
484.3979210,1.0005500,,-0.9991260,0.0417198,-0.0014206,0.0021858,0.0026370,-0.0085361,0.0039137,,,,0.2118174,4.8160572,-15.9049530,0.0000000,0.0000000,0.0000000,0.0200110,0.0002013,0.0000000,0.0000000,0.0000201,0.0000000,0.0000000,0.0000000,0.0002013,0.0000000,0.0000000,0.0000201,0.0000000,0.0000000,0.0000000,0.0002013,0.0000000,0.0000000,0.0000201,0.0000201,0.0000000,0.0000000,0.0000040,0.0000000,0.0000000,0.0000000,0.0000201,0.0000000,0.0000000,0.0000040,0.0000000,0.0000000,0.0000000,0.0000201,0.0000000,0.0000000,0.0000040
484.4179370,0.9999500,,-0.9991260,0.0417199,-0.0014205,0.0022023,0.0014634,-0.0027193,0.0041541,,,,0.2118174,4.8160572,-15.9049530,0.0000000,0.0000000,0.0000000,0.0199990,0.0002021,0.0000000,0.0000000,0.0000202,0.0000000,0.0000000,0.0000000,0.0002021,0.0000000,0.0000000,0.0000202,0.0000000,0.0000000,0.0000000,0.0002021,0.0000000,0.0000000,0.0000202,0.0000202,0.0000000,0.0000000,0.0000040,0.0000000,0.0000000,0.0000000,0.0000202,0.0000000,0.0000000,0.0000040,0.0000000,0.0000000,0.0000000,0.0000202,0.0000000,0.0000000,0.0000040
484.4387930,1.0495000,,-0.9991260,0.0417199,-0.0014019,0.0022112,-0.0059287,0.0062926,-0.0010968,,,,0.2118174,4.8160572,-15.9049530,0.0000000,0.0000000,0.0000000,0.0209900,0.0002030,0.0000000,0.0000000,0.0000203,0.0000000,0.0000000,0.0000000,0.0002030,0.0000000,0.0000000,0.0000203,0.0000000,0.0000000,0.0000000,0.0002030,0.0000000,0.0000000,0.0000203,0.0000203,0.0000000,0.0000000,0.0000040,0.0000000,0.0000000,0.0000000,0.0000203,0.0000000,0.0000000,0.0000040,0.0000000,0.0000000,0.0000000,0.0000203,0.0000000,0.0000000,0.0000040
484.4549820,,0.9999800,-0.9991260,0.0417199,-0.0014019,0.0022112,,,,0.0000000,0.0000000,0.0000000,0.2118174,4.8160572,-15.9049530,0.0000000,0.0000000,0.0000000,0.0999980,0.0001989,0.0000000,0.0000000,0.0000199,0.0000000,0.0000000,0.0000000,0.0001989,0.0000000,0.0000000,0.0000199,0.0000000,0.0000000,0.0000000,0.0001989,0.0000000,0.0000000,0.0000199,0.0000199,0.0000000,0.0000000,0.0000040,0.0000000,0.0000000,0.0000000,0.0000199,0.0000000,0.0000000,0.0000040,0.0000000,0.0000000,0.0000000,0.0000199,0.0000000,0.0000000,0.0000040
484.4685600,1.1001000,,-0.9991260,0.0417200,-0.0013861,0.0021927,-0.0035061,0.0075790,0.0070200,,,,0.2118174,4.8160572,-15.9049530,0.0000000,0.0000000,0.0000000,0.0220020,0.0001998,0.0000000,0.0000000,0.0000200,0.0000000,0.0000000,0.0000000,0.0001998,0.0000000,0.0000000,0.0000200,0.0000000,0.0000000,0.0000000,0.0001998,0.0000000,0.0000000,0.0000200,0.0000200,0.0000000,0.0000000,0.0000040,0.0000000,0.0000000,0.0000000,0.0000200,0.0000000,0.0000000,0.0000040,0.0000000,0.0000000,0.0000000,0.0000200,0.0000000,0.0000000,0.0000040
484.4832640,1.0498501,,-0.9991260,0.0417199,-0.0013990,0.0021801,-0.0025846,0.0004020,0.0093694,,,,0.2118174,4.8160572,-15.9049530,0.0000000,0.0000000,0.0000000,0.0209970,0.0002006,0.0000000,0.0000000,0.0000200,0.0000000,0.0000000,0.0000000,0.0002006,0.0000000,0.0000000,0.0000200,0.0000000,0.0000000,0.0000000,0.0002006,0.0000000,0.0000000,0.0000200,0.0000200,0.0000000,0.0000000,0.0000040,0.0000000,0.0000000,0.0000000,0.0000200,0.0000000,0.0000000,0.0000040,0.0000000,0.0000000,0.0000000,0.0000200,0.0000000,0.0000000,0.0000040
484.5020030,1.0001501,,-0.9991261,0.0417199,-0.0013973,0.0021518,-0.0104094,0.0065334,0.0051730,,,,0.2118174,4.8160572,-15.9049530,0.0000000,0.0000000,0.0000000,0.0200030,0.0002014,0.0000000,0.0000000,0.0000201,0.0000000,0.0000000,0.0000000,0.0002014,0.0000000,0.0000000,0.0000201,0.0000000,0.0000000,0.0000000,0.0002014,0.0000000,0.0000000,0.0000201,0.0000201,0.0000000,0.0000000,0.0000040,0.0000000,0.0000000,0.0000000,0.0000201,0.0000000,0.0000000,0.0000040,0.0000000,0.0000000,0.0000000,0.0000201,0.0000000,0.0000000,0.0000040
484.5219300,1.0003999,,-0.9991262,0.0417199,-0.0013806,0.0021096,-0.0062347,0.0051512,-0.0013198,,,,0.2118174,4.8160572,-15.9049530,0.0000000,0.0000000,0.0000000,0.0200080,0.0002022,0.0000000,0.0000000,0.0000202,0.0000000,0.0000000,0.0000000,0.0002022,0.0000000,0.0000000,0.0000202,0.0000000,0.0000000,0.0000000,0.0002022,0.0000000,0.0000000,0.0000202,0.0000202,0.0000000,0.0000000,0.0000040,0.0000000,0.0000000,0.0000000,0.0000202,0.0000000,0.0000000,0.0000040,0.0000000,0.0000000,0.0000000,0.0000202,0.0000000,0.0000000,0.0000040
484.5416610,0.9995500,,-0.9991262,0.0417198,-0.0014015,0.0020980,-0.0007828,0.0015532,-0.0001716,,,,0.2118174,4.8160572,-15.9049530,0.0000000,0.0000000,0.0000000,0.0199910,0.0002031,0.0000000,0.0000000,0.0000203,0.0000000,0.0000000,0.0000000,0.0002031,0.0000000,0.0000000,0.0000203,0.0000000,0.0000000,0.0000000,0.0002031,0.0000000,0.0000000,0.0000203,0.0000203,0.0000000,0.0000000,0.0000040,0.0000000,0.0000000,0.0000000,0.0000203,0.0000000,0.0000000,0.0000040,0.0000000,0.0000000,0.0000000,0.0000203,0.0000000,0.0000000,0.0000040
484.5571340,,1.0200499,-0.9991262,0.0417198,-0.0014015,0.0020980,,,,0.0000000,0.0000000,0.0000000,0.2118174,4.8160572,-15.9049530,0.0000000,0.0000000,0.0000000,0.1020050,0.0001990,0.0000000,0.0000000,0.0000199,0.0000000,0.0000000,0.0000000,0.0001990,0.0000000,0.0000000,0.0000199,0.0000000,0.0000000,0.0000000,0.0001990,0.0000000,0.0000000,0.0000199,0.0000199,0.0000000,0.0000000,0.0000040,0.0000000,0.0000000,0.0000000,0.0000199,0.0000000,0.0000000,0.0000040,0.0000000,0.0000000,0.0000000,0.0000199,0.0000000,0.0000000,0.0000040
484.5716200,1.1005501,,-0.9991262,0.0417198,-0.0014283,0.0020743,0.0021492,0.0036224,0.0067501,,,,0.2118174,4.8160572,-15.9049530,0.0000000,0.0000000,0.0000000,0.0220110,0.0001999,0.0000000,0.0000000,0.0000200,0.0000000,0.0000000,0.0000000,0.0001999,0.0000000,0.0000000,0.0000200,0.0000000,0.0000000,0.0000000,0.0001999,0.0000000,0.0000000,0.0000200,0.0000200,0.0000000,0.0000000,0.0000040,0.0000000,0.0000000,0.0000000,0.0000200,0.0000000,0.0000000,0.0000040,0.0000000,0.0000000,0.0000000,0.0000200,0.0000000,0.0000000,0.0000040
484.5848860,1.0496501,,-0.9991262,0.0417197,-0.0014661,0.0020637,0.0067432,0.0044204,0.0002012,,,,0.2118174,4.8160572,-15.9049530,0.0000000,0.0000000,0.0000000,0.0209930,0.0002007,0.0000000,0.0000000,0.0000201,0.0000000,0.0000000,0.0000000,0.0002007,0.0000000,0.0000000,0.0000201,0.0000000,0.0000000,0.0000000,0.0002007,0.0000000,0.0000000,0.0000201,0.0000201,0.0000000,0.0000000,0.0000040,0.0000000,0.0000000,0.0000000,0.0000201,0.0000000,0.0000000,0.0000040,0.0000000,0.0000000,0.0000000,0.0000201,0.0000000,0.0000000,0.0000040
484.6057660,1.0502001,,-0.9991261,0.0417197,-0.0014729,0.0020893,0.0027155,-0.0029320,0.0040069,,,,0.2118174,4.8160572,-15.9049530,0.0000000,0.0000000,0.0000000,0.0210040,0.0002016,0.0000000,0.0000000,0.0000201,0.0000000,0.0000000,0.0000000,0.0002016,0.0000000,0.0000000,0.0000201,0.0000000,0.0000000,0.0000000,0.0002016,0.0000000,0.0000000,0.0000201,0.0000201,0.0000000,0.0000000,0.0000040,0.0000000,0.0000000,0.0000000,0.0000201,0.0000000,0.0000000,0.0000040,0.0000000,0.0000000,0.0000000,0.0000201,0.0000000,0.0000000,0.0000040
484.6271990,0.9996500,,-0.9991261,0.0417196,-0.0015046,0.0020819,-0.0003283,-0.0020077,0.0022476,,,,0.2118174,4.8160572,-15.9049530,0.0000000,0.0000000,0.0000000,0.0199930,0.0002024,0.0000000,0.0000000,0.0000202,0.0000000,0.0000000,0.0000000,0.0002024,0.0000000,0.0000000,0.0000202,0.0000000,0.0000000,0.0000000,0.0002024,0.0000000,0.0000000,0.0000202,0.0000202,0.0000000,0.0000000,0.0000040,0.0000000,0.0000000,0.0000000,0.0000202,0.0000000,0.0000000,0.0000040,0.0000000,0.0000000,0.0000000,0.0000202,0.0000000,0.0000000,0.0000040
484.6457810,1.0002501,,-0.9991261,0.0417196,-0.0015062,0.0020646,0.0020789,-0.0013319,-0.0022942,,,,0.2118174,4.8160572,-15.9049530,0.0000000,0.0000000,0.0000000,0.0200050,0.0002032,0.0000000,0.0000000,0.0000203,0.0000000,0.0000000,0.0000000,0.0002032,0.0000000,0.0000000,0.0000203,0.0000000,0.0000000,0.0000000,0.0002032,0.0000000,0.0000000,0.0000203,0.0000203,0.0000000,0.0000000,0.0000040,0.0000000,0.0000000,0.0000000,0.0000203,0.0000000,0.0000000,0.0000040,0.0000000,0.0000000,0.0000000,0.0000203,0.0000000,0.0000000,0.0000040
484.6618020,,1.0000000,-0.9991261,0.0417196,-0.0015062,0.0020646,,,,0.0000000,0.0000000,0.0000000,0.2118174,4.8160572,-15.9049530,0.0000000,0.0000000,0.0000000,0.1000000,0.0001991,0.0000000,0.0000000,0.0000199,0.0000000,0.0000000,0.0000000,0.0001991,0.0000000,0.0000000,0.0000199,0.0000000,0.0000000,0.0000000,0.0001991,0.0000000,0.0000000,0.0000199,0.0000199,0.0000000,0.0000000,0.0000040,0.0000000,0.0000000,0.0000000,0.0000199,0.0000000,0.0000000,0.0000040,0.0000000,0.0000000,0.0000000,0.0000199,0.0000000,0.0000000,0.0000040
484.6754790,0.9997000,,-0.9991261,0.0417196,-0.0015164,0.0020665,-0.0047894,-0.0063422,-0.0033444,,,,0.2118174,4.8160572,-15.9049530,0.0000000,0.0000000,0.0000000,0.0199940,0.0001999,0.0000000,0.0000000,0.0000200,0.0000000,0.0000000,0.0000000,0.0001999,0.0000000,0.0000000,0.0000200,0.0000000,0.0000000,0.0000000,0.0001999,0.0000000,0.0000000,0.0000200,0.0000200,0.0000000,0.0000000,0.0000040,0.0000000,0.0000000,0.0000000,0.0000200,0.0000000,0.0000000,0.0000040,0.0000000,0.0000000,0.0000000,0.0000200,0.0000000,0.0000000,0.0000040
484.6886480,1.1499000,,-0.9991261,0.0417197,-0.0015081,0.0020806,-0.0033102,-0.0080921,-0.0016722,,,,0.2118174,4.8160572,-15.9049530,0.0000000,0.0000000,0.0000000,0.0229980,0.0002009,0.0000000,0.0000000,0.0000201,0.0000000,0.0000000,0.0000000,0.0002009,0.0000000,0.0000000,0.0000201,0.0000000,0.0000000,0.0000000,0.0002009,0.0000000,0.0000000,0.0000201,0.0000201,0.0000000,0.0000000,0.0000040,0.0000000,0.0000000,0.0000000,0.0000201,0.0000000,0.0000000,0.0000040,0.0000000,0.0000000,0.0000000,0.0000201,0.0000000,0.0000000,0.0000040
484.7097840,1.0502001,,-0.9991261,0.0417197,-0.0015021,0.0020884,-0.0018382,-0.0089670,0.0020936,,,,0.2118174,4.8160572,-15.9049530,0.0000000,0.0000000,0.0000000,0.0210040,0.0002017,0.0000000,0.0000000,0.0000202,0.0000000,0.0000000,0.0000000,0.0002017,0.0000000,0.0000000,0.0000202,0.0000000,0.0000000,0.0000000,0.0002017,0.0000000,0.0000000,0.0000202,0.0000202,0.0000000,0.0000000,0.0000040,0.0000000,0.0000000,0.0000000,0.0000202,0.0000000,0.0000000,0.0000040,0.0000000,0.0000000,0.0000000,0.0000202,0.0000000,0.0000000,0.0000040
484.7310620,1.0502001,,-0.9991260,0.0417197,-0.0015025,0.0021042,-0.0033071,-0.0084050,0.0064179,,,,0.2118174,4.8160572,-15.9049530,0.0000000,0.0000000,0.0000000,0.0210040,0.0002025,0.0000000,0.0000000,0.0000202,0.0000000,0.0000000,0.0000000,0.0002025,0.0000000,0.0000000,0.0000202,0.0000000,0.0000000,0.0000000,0.0002025,0.0000000,0.0000000,0.0000202,0.0000202,0.0000000,0.0000000,0.0000040,0.0000000,0.0000000,0.0000000,0.0000202,0.0000000,0.0000000,0.0000040,0.0000000,0.0000000,0.0000000,0.0000202,0.0000000,0.0000000,0.0000040
484.7531830,,1.0099900,-0.9991260,0.0417197,-0.0015062,0.0021220,,,,0.0000000,0.0000000,0.0000000,0.2118174,4.8160572,-15.9049530,0.0000000,0.0000000,0.0000000,0.1009990,0.0001985,0.0000000,0.0000000,0.0000198,0.0000000,0.0000000,0.0000000,0.0001985,0.0000000,0.0000000,0.0000198,0.0000000,0.0000000,0.0000000,0.0001985,0.0000000,0.0000000,0.0000198,0.0000198,0.0000000,0.0000000,0.0000040,0.0000000,0.0000000,0.0000000,0.0000198,0.0000000,0.0000000,0.0000040,0.0000000,0.0000000,0.0000000,0.0000198,0.0000000,0.0000000,0.0000040
484.7666330,1.0002999,,-0.9991260,0.0417197,-0.0015062,0.0021220,0.0040075,-0.0002886,0.0041855,,,,0.2118174,4.8160572,-15.9049530,0.0000000,0.0000000,0.0000000,0.0200060,0.0001993,0.0000000,0.0000000,0.0000199,0.0000000,0.0000000,0.0000000,0.0001993,0.0000000,0.0000000,0.0000199,0.0000000,0.0000000,0.0000000,0.0001993,0.0000000,0.0000000,0.0000199,0.0000199,0.0000000,0.0000000,0.0000040,0.0000000,0.0000000,0.0000000,0.0000199,0.0000000,0.0000000,0.0000040,0.0000000,0.0000000,0.0000000,0.0000199,0.0000000,0.0000000,0.0000040
484.7799840,1.4495500,,-0.9991260,0.0417198,-0.0014887,0.0021287,0.0006304,0.0013205,0.0003838,,,,0.2118174,4.8160572,-15.9049530,0.0000000,0.0000000,0.0000000,0.0289910,0.0002005,0.0000000,0.0000000,0.0000200,0.0000000,0.0000000,0.0000000,0.0002005,0.0000000,0.0000000,0.0000200,0.0000000,0.0000000,0.0000000,0.0002005,0.0000000,0.0000000,0.0000200,0.0000200,0.0000000,0.0000000,0.0000040,0.0000000,0.0000000,0.0000000,0.0000200,0.0000000,0.0000000,0.0000040,0.0000000,0.0000000,0.0000000,0.0000200,0.0000000,0.0000000,0.0000040
484.7996980,1.0002000,,-0.9991260,0.0417198,-0.0014832,0.0021314,-0.0008216,0.0018810,-0.0002964,,,,0.2118174,4.8160572,-15.9049530,0.0000000,0.0000000,0.0000000,0.0200040,0.0002013,0.0000000,0.0000000,0.0000201,0.0000000,0.0000000,0.0000000,0.0002013,0.0000000,0.0000000,0.0000201,0.0000000,0.0000000,0.0000000,0.0002013,0.0000000,0.0000000,0.0000201,0.0000201,0.0000000,0.0000000,0.0000040,0.0000000,0.0000000,0.0000000,0.0000201,0.0000000,0.0000000,0.0000040,0.0000000,0.0000000,0.0000000,0.0000201,0.0000000,0.0000000,0.0000040
484.8208010,1.0496501,,-0.9991260,0.0417199,-0.0014740,0.0021361,-0.0017841,-0.0012492,-0.0030779,,,,0.2118174,4.8160572,-15.9049530,0.0000000,0.0000000,0.0000000,0.0209930,0.0002021,0.0000000,0.0000000,0.0000202,0.0000000,0.0000000,0.0000000,0.0002021,0.0000000,0.0000000,0.0000202,0.0000000,0.0000000,0.0000000,0.0002021,0.0000000,0.0000000,0.0000202,0.0000202,0.0000000,0.0000000,0.0000040,0.0000000,0.0000000,0.0000000,0.0000202,0.0000000,0.0000000,0.0000040,0.0000000,0.0000000,0.0000000,0.0000202,0.0000000,0.0000000,0.0000040
484.8417930,1.0499500,,-0.9991260,0.0417199,-0.0014815,0.0021372,0.0033270,0.0062190,0.0067618,,,,0.2118174,4.8160572,-15.9049530,0.0000000,0.0000000,0.0000000,0.0209990,0.0002030,0.0000000,0.0000000,0.0000203,0.0000000,0.0000000,0.0000000,0.0002030,0.0000000,0.0000000,0.0000203,0.0000000,0.0000000,0.0000000,0.0002030,0.0000000,0.0000000,0.0000203,0.0000203,0.0000000,0.0000000,0.0000040,0.0000000,0.0000000,0.0000000,0.0000203,0.0000000,0.0000000,0.0000040,0.0000000,0.0000000,0.0000000,0.0000203,0.0000000,0.0000000,0.0000040
484.8575970,,1.0199300,-0.9991260,0.0417199,-0.0014815,0.0021372,,,,0.0000000,0.0000000,0.0000000,0.2118174,4.8160572,-15.9049530,0.0000000,0.0000000,0.0000000,0.1019930,0.0001989,0.0000000,0.0000000,0.0000199,0.0000000,0.0000000,0.0000000,0.0001989,0.0000000,0.0000000,0.0000199,0.0000000,0.0000000,0.0000000,0.0001989,0.0000000,0.0000000,0.0000199,0.0000199,0.0000000,0.0000000,0.0000040,0.0000000,0.0000000,0.0000000,0.0000199,0.0000000,0.0000000,0.0000040,0.0000000,0.0000000,0.0000000,0.0000199,0.0000000,0.0000000,0.0000040
484.8714860,1.0000501,,-0.9991260,0.0417198,-0.0015012,0.0021110,0.0014575,0.0037961,0.0031368,,,,0.2118174,4.8160572,-15.9049530,0.0000000,0.0000000,0.0000000,0.0200010,0.0001997,0.0000000,0.0000000,0.0000200,0.0000000,0.0000000,0.0000000,0.0001997,0.0000000,0.0000000,0.0000200,0.0000000,0.0000000,0.0000000,0.0001997,0.0000000,0.0000000,0.0000200,0.0000200,0.0000000,0.0000000,0.0000040,0.0000000,0.0000000,0.0000000,0.0000200,0.0000000,0.0000000,0.0000040,0.0000000,0.0000000,0.0000000,0.0000200,0.0000000,0.0000000,0.0000040
484.8847770,1.1502000,,-0.9991260,0.0417198,-0.0015018,0.0021037,-0.0001944,0.0038130,-0.0003847,,,,0.2118174,4.8160572,-15.9049530,0.0000000,0.0000000,0.0000000,0.0230040,0.0002006,0.0000000,0.0000000,0.0000200,0.0000000,0.0000000,0.0000000,0.0002006,0.0000000,0.0000000,0.0000200,0.0000000,0.0000000,0.0000000,0.0002006,0.0000000,0.0000000,0.0000200,0.0000200,0.0000000,0.0000000,0.0000040,0.0000000,0.0000000,0.0000000,0.0000200,0.0000000,0.0000000,0.0000040,0.0000000,0.0000000,0.0000000,0.0000200,0.0000000,0.0000000,0.0000040
484.9045130,0.9998000,,-0.9991260,0.0417198,-0.0015003,0.0021124,0.0077763,0.0028678,0.0027373,,,,0.2118174,4.8160572,-15.9049530,0.0000000,0.0000000,0.0000000,0.0199960,0.0002014,0.0000000,0.0000000,0.0000201,0.0000000,0.0000000,0.0000000,0.0002014,0.0000000,0.0000000,0.0000201,0.0000000,0.0000000,0.0000000,0.0002014,0.0000000,0.0000000,0.0000201,0.0000201,0.0000000,0.0000000,0.0000040,0.0000000,0.0000000,0.0000000,0.0000201,0.0000000,0.0000000,0.0000040,0.0000000,0.0000000,0.0000000,0.0000201,0.0000000,0.0000000,0.0000040
484.9257980,1.0499500,,-0.9991260,0.0417198,-0.0014937,0.0020982,0.0029803,0.0023647,0.0021011,,,,0.2118174,4.8160572,-15.9049530,0.0000000,0.0000000,0.0000000,0.0209990,0.0002023,0.0000000,0.0000000,0.0000202,0.0000000,0.0000000,0.0000000,0.0002023,0.0000000,0.0000000,0.0000202,0.0000000,0.0000000,0.0000000,0.0002023,0.0000000,0.0000000,0.0000202,0.0000202,0.0000000,0.0000000,0.0000040,0.0000000,0.0000000,0.0000000,0.0000202,0.0000000,0.0000000,0.0000040,0.0000000,0.0000000,0.0000000,0.0000202,0.0000000,0.0000000,0.0000040
484.9473940,1.0003999,,-0.9991261,0.0417199,-0.0014821,0.0020896,-0.0023322,0.0021055,0.0027595,,,,0.2118174,4.8160572,-15.9049530,0.0000000,0.0000000,0.0000000,0.0200080,0.0002031,0.0000000,0.0000000,0.0000203,0.0000000,0.0000000,0.0000000,0.0002031,0.0000000,0.0000000,0.0000203,0.0000000,0.0000000,0.0000000,0.0002031,0.0000000,0.0000000,0.0000203,0.0000203,0.0000000,0.0000000,0.0000040,0.0000000,0.0000000,0.0000000,0.0000203,0.0000000,0.0000000,0.0000040,0.0000000,0.0000000,0.0000000,0.0000203,0.0000000,0.0000000,0.0000040
484.9620740,,1.0200000,-0.9991261,0.0417199,-0.0014821,0.0020639,,,,0.0000000,0.0000000,0.0000000,0.2118174,4.8160572,-15.9049530,0.0000000,0.0000000,0.0000000,0.1020000,0.0001991,0.0000000,0.0000000,0.0000199,0.0000000,0.0000000,0.0000000,0.0001991,0.0000000,0.0000000,0.0000199,0.0000000,0.0000000,0.0000000,0.0001991,0.0000000,0.0000000,0.0000199,0.0000199,0.0000000,0.0000000,0.0000040,0.0000000,0.0000000,0.0000000,0.0000199,0.0000000,0.0000000,0.0000040,0.0000000,0.0000000,0.0000000,0.0000199,0.0000000,0.0000000,0.0000040
484.9769010,0.9996000,,-0.9991262,0.0417199,-0.0014531,0.0020639,-0.0029895,0.0043715,0.0077274,,,,0.2118174,4.8160572,-15.9049530,0.0000000,0.0000000,0.0000000,0.0199920,0.0001999,0.0000000,0.0000000,0.0000200,0.0000000,0.0000000,0.0000000,0.0001999,0.0000000,0.0000000,0.0000200,0.0000000,0.0000000,0.0000000,0.0001999,0.0000000,0.0000000,0.0000200,0.0000200,0.0000000,0.0000000,0.0000040,0.0000000,0.0000000,0.0000000,0.0000200,0.0000000,0.0000000,0.0000040,0.0000000,0.0000000,0.0000000,0.0000200,0.0000000,0.0000000,0.0000040
484.9896930,1.1999500,,-0.9991262,0.0417199,-0.0014576,0.0020379,0.0017706,0.0030403,0.0089907,,,,0.2118174,4.8160572,-15.9049530,0.0000000,0.0000000,0.0000000,0.0239990,0.0002008,0.0000000,0.0000000,0.0000201,0.0000000,0.0000000,0.0000000,0.0002008,0.0000000,0.0000000,0.0000201,0.0000000,0.0000000,0.0000000,0.0002008,0.0000000,0.0000000,0.0000201,0.0000201,0.0000000,0.0000000,0.0000040,0.0000000,0.0000000,0.0000000,0.0000201,0.0000000,0.0000000,0.0000040,0.0000000,0.0000000,0.0000000,0.0000201,0.0000000,0.0000000,0.0000040
485.0110260,1.0504500,,-0.9991262,0.0417199,-0.0014534,0.0020396,0.0063632,-0.0002804,0.0035188,,,,0.2118174,4.8160572,-15.9049530,0.0000000,0.0000000,0.0000000,0.0210090,0.0002017,0.0000000,0.0000000,0.0000202,0.0000000,0.0000000,0.0000000,0.0002017,0.0000000,0.0000000,0.0000202,0.0000000,0.0000000,0.0000000,0.0002017,0.0000000,0.0000000,0.0000202,0.0000202,0.0000000,0.0000000,0.0000040,0.0000000,0.0000000,0.0000000,0.0000202,0.0000000,0.0000000,0.0000040,0.0000000,0.0000000,0.0000000,0.0000202,0.0000000,0.0000000,0.0000040
485.0320430,1.0500500,,-0.9991262,0.0417199,-0.0014544,0.0020468,0.0008394,-0.0036421,-0.0041000,,,,0.2118174,4.8160572,-15.9049530,0.0000000,0.0000000,0.0000000,0.0210010,0.0002025,0.0000000,0.0000000,0.0000202,0.0000000,0.0000000,0.0000000,0.0002025,0.0000000,0.0000000,0.0000202,0.0000000,0.0000000,0.0000000,0.0002025,0.0000000,0.0000000,0.0000202,0.0000202,0.0000000,0.0000000,0.0000040,0.0000000,0.0000000,0.0000000,0.0000202,0.0000000,0.0000000,0.0000040,0.0000000,0.0000000,0.0000000,0.0000202,0.0000000,0.0000000,0.0000040
485.0518950,0.9996000,,-0.9991262,0.0417199,-0.0014592,0.0020559,0.0009995,-0.0028663,-0.0003410,,,,0.2118174,4.8160572,-15.9049530,0.0000000,0.0000000,0.0000000,0.0199920,0.0002033,0.0000000,0.0000000,0.0000203,0.0000000,0.0000000,0.0000000,0.0002033,0.0000000,0.0000000,0.0000203,0.0000000,0.0000000,0.0000000,0.0002033,0.0000000,0.0000000,0.0000203,0.0000203,0.0000000,0.0000000,0.0000040,0.0000000,0.0000000,0.0000000,0.0000203,0.0000000,0.0000000,0.0000040,0.0000000,0.0000000,0.0000000,0.0000203,0.0000000,0.0000000,0.0000040
485.0677400,,1.0000100,-0.9991262,0.0417199,-0.0014592,0.0020559,,,,0.0000000,0.0000000,0.0000000,0.2118174,4.8160572,-15.9049530,0.0000000,0.0000000,0.0000000,0.1000010,0.0001993,0.0000000,0.0000000,0.0000199,0.0000000,0.0000000,0.0000000,0.0001993,0.0000000,0.0000000,0.0000199,0.0000000,0.0000000,0.0000000,0.0001993,0.0000000,0.0000000,0.0000199,0.0000199,0.0000000,0.0000000,0.0000040,0.0000000,0.0000000,0.0000000,0.0000199,0.0000000,0.0000000,0.0000040,0.0000000,0.0000000,0.0000000,0.0000199,0.0000000,0.0000000,0.0000040
485.0813930,1.0005500,,-0.9991262,0.0417199,-0.0014651,0.0020513,0.0057106,0.0011685,0.0017826,,,,0.2118174,4.8160572,-15.9049530,0.0000000,0.0000000,0.0000000,0.0200110,0.0002001,0.0000000,0.0000000,0.0000200,0.0000000,0.0000000,0.0000000,0.0002001,0.0000000,0.0000000,0.0000200,0.0000000,0.0000000,0.0000000,0.0002001,0.0000000,0.0000000,0.0000200,0.0000200,0.0000000,0.0000000,0.0000040,0.0000000,0.0000000,0.0000000,0.0000200,0.0000000,0.0000000,0.0000040,0.0000000,0.0000000,0.0000000,0.0000200,0.0000000,0.0000000,0.0000040
485.0945910,1.1493500,,-0.9991262,0.0417199,-0.0014707,0.0020531,0.0024433,-0.0012010,0.0011355,,,,0.2118174,4.8160572,-15.9049530,0.0000000,0.0000000,0.0000000,0.0229870,0.0002010,0.0000000,0.0000000,0.0000201,0.0000000,0.0000000,0.0000000,0.0002010,0.0000000,0.0000000,0.0000201,0.0000000,0.0000000,0.0000000,0.0002010,0.0000000,0.0000000,0.0000201,0.0000201,0.0000000,0.0000000,0.0000040,0.0000000,0.0000000,0.0000000,0.0000201,0.0000000,0.0000000,0.0000040,0.0000000,0.0000000,0.0000000,0.0000201,0.0000000,0.0000000,0.0000040
485.1159260,1.0501500,,-0.9991262,0.0417199,-0.0014531,0.0020490,0.0023203,-0.0009362,0.0025209,,,,0.2118174,4.8160572,-15.9049530,0.0000000,0.0000000,0.0000000,0.0210030,0.0002018,0.0000000,0.0000000,0.0000202,0.0000000,0.0000000,0.0000000,0.0002018,0.0000000,0.0000000,0.0000202,0.0000000,0.0000000,0.0000000,0.0002018,0.0000000,0.0000000,0.0000202,0.0000202,0.0000000,0.0000000,0.0000040,0.0000000,0.0000000,0.0000000,0.0000202,0.0000000,0.0000000,0.0000040,0.0000000,0.0000000,0.0000000,0.0000202,0.0000000,0.0000000,0.0000040
485.1358020,1.0002999,,-0.9991263,0.0417200,-0.0014311,0.0020276,-0.0006480,0.0003788,0.0005280,,,,0.2118174,4.8160572,-15.9049530,0.0000000,0.0000000,0.0000000,0.0200060,0.0002026,0.0000000,0.0000000,0.0000202,0.0000000,0.0000000,0.0000000,0.0002026,0.0000000,0.0000000,0.0000202,0.0000000,0.0000000,0.0000000,0.0002026,0.0000000,0.0000000,0.0000202,0.0000202,0.0000000,0.0000000,0.0000040,0.0000000,0.0000000,0.0000000,0.0000202,0.0000000,0.0000000,0.0000040,0.0000000,0.0000000,0.0000000,0.0000202,0.0000000,0.0000000,0.0000040
485.1571130,,1.0099800,-0.9991262,0.0417200,-0.0014408,0.0020399,,,,0.0000000,0.0000000,0.0000000,0.2118174,4.8160572,-15.9049530,0.0000000,0.0000000,0.0000000,0.1009980,0.0001986,0.0000000,0.0000000,0.0000198,0.0000000,0.0000000,0.0000000,0.0001986,0.0000000,0.0000000,0.0000198,0.0000000,0.0000000,0.0000000,0.0001986,0.0000000,0.0000000,0.0000198,0.0000198,0.0000000,0.0000000,0.0000040,0.0000000,0.0000000,0.0000000,0.0000198,0.0000000,0.0000000,0.0000040,0.0000000,0.0000000,0.0000000,0.0000198,0.0000000,0.0000000,0.0000040
485.1707150,1.0001501,,-0.9991262,0.0417200,-0.0014408,0.0020399,0.0041773,-0.0042891,-0.0004684,,,,0.2118174,4.8160572,-15.9049530,0.0000000,0.0000000,0.0000000,0.0200030,0.0001994,0.0000000,0.0000000,0.0000199,0.0000000,0.0000000,0.0000000,0.0001994,0.0000000,0.0000000,0.0000199,0.0000000,0.0000000,0.0000000,0.0001994,0.0000000,0.0000000,0.0000199,0.0000199,0.0000000,0.0000000,0.0000040,0.0000000,0.0000000,0.0000000,0.0000199,0.0000000,0.0000000,0.0000040,0.0000000,0.0000000,0.0000000,0.0000199,0.0000000,0.0000000,0.0000040
485.1837620,1.3994501,,-0.9991262,0.0417200,-0.0014412,0.0020430,0.0014707,-0.0017478,0.0022072,,,,0.2118174,4.8160572,-15.9049530,0.0000000,0.0000000,0.0000000,0.0279890,0.0002005,0.0000000,0.0000000,0.0000200,0.0000000,0.0000000,0.0000000,0.0002005,0.0000000,0.0000000,0.0000200,0.0000000,0.0000000,0.0000000,0.0002005,0.0000000,0.0000000,0.0000200,0.0000200,0.0000000,0.0000000,0.0000040,0.0000000,0.0000000,0.0000000,0.0000200,0.0000000,0.0000000,0.0000040,0.0000000,0.0000000,0.0000000,0.0000200,0.0000000,0.0000000,0.0000040
485.2038650,1.0000000,,-0.9991262,0.0417200,-0.0014524,0.0020427,-0.0064973,0.0014759,0.0015919,,,,0.2118174,4.8160572,-15.9049530,0.0000000,0.0000000,0.0000000,0.0200000,0.0002013,0.0000000,0.0000000,0.0000201,0.0000000,0.0000000,0.0000000,0.0002013,0.0000000,0.0000000,0.0000201,0.0000000,0.0000000,0.0000000,0.0002013,0.0000000,0.0000000,0.0000201,0.0000201,0.0000000,0.0000000,0.0000040,0.0000000,0.0000000,0.0000000,0.0000201,0.0000000,0.0000000,0.0000040,0.0000000,0.0000000,0.0000000,0.0000201,0.0000000,0.0000000,0.0000040
485.2241290,1.0006001,,-0.9991262,0.0417200,-0.0014599,0.0020405,-0.0068268,0.0043009,-0.0004248,,,,0.2118174,4.8160572,-15.9049530,0.0000000,0.0000000,0.0000000,0.0200120,0.0002021,0.0000000,0.0000000,0.0000202,0.0000000,0.0000000,0.0000000,0.0002021,0.0000000,0.0000000,0.0000202,0.0000000,0.0000000,0.0000000,0.0002021,0.0000000,0.0000000,0.0000202,0.0000202,0.0000000,0.0000000,0.0000040,0.0000000,0.0000000,0.0000000,0.0000202,0.0000000,0.0000000,0.0000040,0.0000000,0.0000000,0.0000000,0.0000202,0.0000000,0.0000000,0.0000040
485.2438570,0.9994500,,-0.9991261,0.0417200,-0.0014786,0.0020489,0.0015304,-0.0018321,-0.0004565,,,,0.2118174,4.8160572,-15.9049530,0.0000000,0.0000000,0.0000000,0.0199890,0.0002029,0.0000000,0.0000000,0.0000203,0.0000000,0.0000000,0.0000000,0.0002029,0.0000000,0.0000000,0.0000203,0.0000000,0.0000000,0.0000000,0.0002029,0.0000000,0.0000000,0.0000203,0.0000203,0.0000000,0.0000000,0.0000040,0.0000000,0.0000000,0.0000000,0.0000203,0.0000000,0.0000000,0.0000040,0.0000000,0.0000000,0.0000000,0.0000203,0.0000000,0.0000000,0.0000040
485.2598450,,1.0000600,-0.9991261,0.0417200,-0.0014786,0.0020489,,,,0.0000000,0.0000000,0.0000000,0.2118174,4.8160572,-15.9049530,0.0000000,0.0000000,0.0000000,0.1000060,0.0001989,0.0000000,0.0000000,0.0000199,0.0000000,0.0000000,0.0000000,0.0001989,0.0000000,0.0000000,0.0000199,0.0000000,0.0000000,0.0000000,0.0001989,0.0000000,0.0000000,0.0000199,0.0000199,0.0000000,0.0000000,0.0000040,0.0000000,0.0000000,0.0000000,0.0000199,0.0000000,0.0000000,0.0000040,0.0000000,0.0000000,0.0000000,0.0000199,0.0000000,0.0000000,0.0000040
485.2737810,1.0002999,,-0.9991261,0.0417200,-0.0014858,0.0020685,-0.0030800,-0.0014501,0.0046546,,,,0.2118174,4.8160572,-15.9049530,0.0000000,0.0000000,0.0000000,0.0200060,0.0001997,0.0000000,0.0000000,0.0000200,0.0000000,0.0000000,0.0000000,0.0001997,0.0000000,0.0000000,0.0000200,0.0000000,0.0000000,0.0000000,0.0001997,0.0000000,0.0000000,0.0000200,0.0000200,0.0000000,0.0000000,0.0000040,0.0000000,0.0000000,0.0000000,0.0000200,0.0000000,0.0000000,0.0000040,0.0000000,0.0000000,0.0000000,0.0000200,0.0000000,0.0000000,0.0000040
485.2868720,1.1496500,,-0.9991261,0.0417199,-0.0015009,0.0020627,-0.0034550,-0.0027545,0.0028156,,,,0.2118174,4.8160572,-15.9049530,0.0000000,0.0000000,0.0000000,0.0229930,0.0002006,0.0000000,0.0000000,0.0000200,0.0000000,0.0000000,0.0000000,0.0002006,0.0000000,0.0000000,0.0000200,0.0000000,0.0000000,0.0000000,0.0002006,0.0000000,0.0000000,0.0000200,0.0000200,0.0000000,0.0000000,0.0000040,0.0000000,0.0000000,0.0000000,0.0000200,0.0000000,0.0000000,0.0000040,0.0000000,0.0000000,0.0000000,0.0000200,0.0000000,0.0000000,0.0000040
485.3066980,1.0006001,,-0.9991260,0.0417199,-0.0015176,0.0020750,0.0034224,-0.0016672,0.0058023,,,,0.2118174,4.8160572,-15.9049530,0.0000000,0.0000000,0.0000000,0.0200120,0.0002014,0.0000000,0.0000000,0.0000201,0.0000000,0.0000000,0.0000000,0.0002014,0.0000000,0.0000000,0.0000201,0.0000000,0.0000000,0.0000000,0.0002014,0.0000000,0.0000000,0.0000201,0.0000201,0.0000000,0.0000000,0.0000040,0.0000000,0.0000000,0.0000000,0.0000201,0.0000000,0.0000000,0.0000040,0.0000000,0.0000000,0.0000000,0.0000201,0.0000000,0.0000000,0.0000040
485.3277310,1.0494001,,-0.9991260,0.0417199,-0.0015396,0.0020849,0.0043891,-0.0006276,-0.0022258,,,,0.2118174,4.8160572,-15.9049530,0.0000000,0.0000000,0.0000000,0.0209880,0.0002022,0.0000000,0.0000000,0.0000202,0.0000000,0.0000000,0.0000000,0.0002022,0.0000000,0.0000000,0.0000202,0.0000000,0.0000000,0.0000000,0.0002022,0.0000000,0.0000000,0.0000202,0.0000202,0.0000000,0.0000000,0.0000040,0.0000000,0.0000000,0.0000000,0.0000202,0.0000000,0.0000000,0.0000040,0.0000000,0.0000000,0.0000000,0.0000202,0.0000000,0.0000000,0.0000040
485.3491090,1.0499500,,-0.9991259,0.0417199,-0.0015591,0.0021008,-0.0029553,-0.0049677,0.0005961,,,,0.2118174,4.8160572,-15.9049530,0.0000000,0.0000000,0.0000000,0.0209990,0.0002031,0.0000000,0.0000000,0.0000203,0.0000000,0.0000000,0.0000000,0.0002031,0.0000000,0.0000000,0.0000203,0.0000000,0.0000000,0.0000000,0.0002031,0.0000000,0.0000000,0.0000203,0.0000203,0.0000000,0.0000000,0.0000040,0.0000000,0.0000000,0.0000000,0.0000203,0.0000000,0.0000000,0.0000040,0.0000000,0.0000000,0.0000000,0.0000203,0.0000000,0.0000000,0.0000040
485.3651540,,1.0199599,-0.9991259,0.0417199,-0.0015591,0.0021008,,,,0.0000000,0.0000000,0.0000000,0.2118174,4.8160572,-15.9049530,0.0000000,0.0000000,0.0000000,0.1019960,0.0001991,0.0000000,0.0000000,0.0000199,0.0000000,0.0000000,0.0000000,0.0001991,0.0000000,0.0000000,0.0000199,0.0000000,0.0000000,0.0000000,0.0001991,0.0000000,0.0000000,0.0000199,0.0000199,0.0000000,0.0000000,0.0000040,0.0000000,0.0000000,0.0000000,0.0000199,0.0000000,0.0000000,0.0000040,0.0000000,0.0000000,0.0000000,0.0000199,0.0000000,0.0000000,0.0000040
485.3798240,1.1003500,,-0.9991258,0.0417199,-0.0015799,0.0021215,0.0019022,0.0021701,-0.0043406,,,,0.2118174,4.8160572,-15.9049530,0.0000000,0.0000000,0.0000000,0.0220070,0.0001999,0.0000000,0.0000000,0.0000200,0.0000000,0.0000000,0.0000000,0.0001999,0.0000000,0.0000000,0.0000200,0.0000000,0.0000000,0.0000000,0.0001999,0.0000000,0.0000000,0.0000200,0.0000200,0.0000000,0.0000000,0.0000040,0.0000000,0.0000000,0.0000000,0.0000200,0.0000000,0.0000000,0.0000040,0.0000000,0.0000000,0.0000000,0.0000200,0.0000000,0.0000000,0.0000040
485.3925810,1.0997001,,-0.9991258,0.0417199,-0.0015771,0.0021306,-0.0017497,0.0030458,-0.0026586,,,,0.2118174,4.8160572,-15.9049530,0.0000000,0.0000000,0.0000000,0.0219940,0.0002008,0.0000000,0.0000000,0.0000201,0.0000000,0.0000000,0.0000000,0.0002008,0.0000000,0.0000000,0.0000201,0.0000000,0.0000000,0.0000000,0.0002008,0.0000000,0.0000000,0.0000201,0.0000201,0.0000000,0.0000000,0.0000040,0.0000000,0.0000000,0.0000000,0.0000201,0.0000000,0.0000000,0.0000040,0.0000000,0.0000000,0.0000000,0.0000201,0.0000000,0.0000000,0.0000040
485.4137320,1.0500500,,-0.9991258,0.0417200,-0.0015597,0.0021381,0.0008494,0.0020264,-0.0045031,,,,0.2118174,4.8160572,-15.9049530,0.0000000,0.0000000,0.0000000,0.0210010,0.0002017,0.0000000,0.0000000,0.0000202,0.0000000,0.0000000,0.0000000,0.0002017,0.0000000,0.0000000,0.0000202,0.0000000,0.0000000,0.0000000,0.0002017,0.0000000,0.0000000,0.0000202,0.0000202,0.0000000,0.0000000,0.0000040,0.0000000,0.0000000,0.0000000,0.0000202,0.0000000,0.0000000,0.0000040,0.0000000,0.0000000,0.0000000,0.0000202,0.0000000,0.0000000,0.0000040
485.4348940,1.0499500,,-0.9991258,0.0417200,-0.0015486,0.0021456,0.0004476,0.0012802,0.0023871,,,,0.2118174,4.8160572,-15.9049530,0.0000000,0.0000000,0.0000000,0.0209990,0.0002025,0.0000000,0.0000000,0.0000202,0.0000000,0.0000000,0.0000000,0.0002025,0.0000000,0.0000000,0.0000202,0.0000000,0.0000000,0.0000000,0.0002025,0.0000000,0.0000000,0.0000202,0.0000202,0.0000000,0.0000000,0.0000040,0.0000000,0.0000000,0.0000000,0.0000202,0.0000000,0.0000000,0.0000040,0.0000000,0.0000000,0.0000000,0.0000202,0.0000000,0.0000000,0.0000040
485.4550780,0.9999500,,-0.9991258,0.0417201,-0.0015240,0.0021495,0.0017497,-0.0017784,0.0058322,,,,0.2118174,4.8160572,-15.9049530,0.0000000,0.0000000,0.0000000,0.0199990,0.0002033,0.0000000,0.0000000,0.0000203,0.0000000,0.0000000,0.0000000,0.0002033,0.0000000,0.0000000,0.0000203,0.0000000,0.0000000,0.0000000,0.0002033,0.0000000,0.0000000,0.0000203,0.0000203,0.0000000,0.0000000,0.0000040,0.0000000,0.0000000,0.0000000,0.0000203,0.0000000,0.0000000,0.0000040,0.0000000,0.0000000,0.0000000,0.0000203,0.0000000,0.0000000,0.0000040
485.4709210,,1.0000199,-0.9991258,0.0417201,-0.0015240,0.0021495,,,,0.0000000,0.0000000,0.0000000,0.2118174,4.8160572,-15.9049530,0.0000000,0.0000000,0.0000000,0.1000020,0.0001993,0.0000000,0.0000000,0.0000199,0.0000000,0.0000000,0.0000000,0.0001993,0.0000000,0.0000000,0.0000199,0.0000000,0.0000000,0.0000000,0.0001993,0.0000000,0.0000000,0.0000199,0.0000199,0.0000000,0.0000000,0.0000040,0.0000000,0.0000000,0.0000000,0.0000199,0.0000000,0.0000000,0.0000040,0.0000000,0.0000000,0.0000000,0.0000199,0.0000000,0.0000000,0.0000040
485.4848510,1.0006001,,-0.9991259,0.0417202,-0.0014961,0.0021497,0.0019429,-0.0001415,0.0070665,,,,0.2118174,4.8160572,-15.9049530,0.0000000,0.0000000,0.0000000,0.0200120,0.0002001,0.0000000,0.0000000,0.0000200,0.0000000,0.0000000,0.0000000,0.0002001,0.0000000,0.0000000,0.0000200,0.0000000,0.0000000,0.0000000,0.0002001,0.0000000,0.0000000,0.0000200,0.0000200,0.0000000,0.0000000,0.0000040,0.0000000,0.0000000,0.0000000,0.0000200,0.0000000,0.0000000,0.0000040,0.0000000,0.0000000,0.0000000,0.0000200,0.0000000,0.0000000,0.0000040
485.4976590,1.1494499,,-0.9991260,0.0417202,-0.0015020,0.0021372,0.0063960,-0.0027639,0.0037774,,,,0.2118174,4.8160572,-15.9049530,0.0000000,0.0000000,0.0000000,0.0229890,0.0002010,0.0000000,0.0000000,0.0000201,0.0000000,0.0000000,0.0000000,0.0002010,0.0000000,0.0000000,0.0000201,0.0000000,0.0000000,0.0000000,0.0002010,0.0000000,0.0000000,0.0000201,0.0000201,0.0000000,0.0000000,0.0000040,0.0000000,0.0000000,0.0000000,0.0000201,0.0000000,0.0000000,0.0000040,0.0000000,0.0000000,0.0000000,0.0000201,0.0000000,0.0000000,0.0000040
485.5201990,1.0499500,,-0.9991259,0.0417201,-0.0015208,0.0021488,0.0027326,-0.0103847,-0.0047031,,,,0.2118174,4.8160572,-15.9049530,0.0000000,0.0000000,0.0000000,0.0209990,0.0002018,0.0000000,0.0000000,0.0000202,0.0000000,0.0000000,0.0000000,0.0002018,0.0000000,0.0000000,0.0000202,0.0000000,0.0000000,0.0000000,0.0002018,0.0000000,0.0000000,0.0000202,0.0000202,0.0000000,0.0000000,0.0000040,0.0000000,0.0000000,0.0000000,0.0000202,0.0000000,0.0000000,0.0000040,0.0000000,0.0000000,0.0000000,0.0000202,0.0000000,0.0000000,0.0000040
485.5388730,1.0000501,,-0.9991258,0.0417201,-0.0015270,0.0021546,0.0009085,-0.0046735,-0.0060137,,,,0.2118174,4.8160572,-15.9049530,0.0000000,0.0000000,0.0000000,0.0200010,0.0002026,0.0000000,0.0000000,0.0000202,0.0000000,0.0000000,0.0000000,0.0002026,0.0000000,0.0000000,0.0000202,0.0000000,0.0000000,0.0000000,0.0002026,0.0000000,0.0000000,0.0000202,0.0000202,0.0000000,0.0000000,0.0000040,0.0000000,0.0000000,0.0000000,0.0000202,0.0000000,0.0000000,0.0000040,0.0000000,0.0000000,0.0000000,0.0000202,0.0000000,0.0000000,0.0000040
485.5591220,,1.0000299,-0.9991259,0.0417201,-0.0015364,0.0021266,,,,0.0000000,0.0000000,0.0000000,0.2118174,4.8160572,-15.9049530,0.0000000,0.0000000,0.0000000,0.1000030,0.0001986,0.0000000,0.0000000,0.0000198,0.0000000,0.0000000,0.0000000,0.0001986,0.0000000,0.0000000,0.0000198,0.0000000,0.0000000,0.0000000,0.0001986,0.0000000,0.0000000,0.0000198,0.0000198,0.0000000,0.0000000,0.0000040,0.0000000,0.0000000,0.0000000,0.0000198,0.0000000,0.0000000,0.0000040,0.0000000,0.0000000,0.0000000,0.0000198,0.0000000,0.0000000,0.0000040
485.5736880,1.0001000,,-0.9991259,0.0417201,-0.0015364,0.0021266,0.0029109,-0.0050528,-0.0044717,,,,0.2118174,4.8160572,-15.9049530,0.0000000,0.0000000,0.0000000,0.0200020,0.0001994,0.0000000,0.0000000,0.0000199,0.0000000,0.0000000,0.0000000,0.0001994,0.0000000,0.0000000,0.0000199,0.0000000,0.0000000,0.0000000,0.0001994,0.0000000,0.0000000,0.0000199,0.0000199,0.0000000,0.0000000,0.0000040,0.0000000,0.0000000,0.0000000,0.0000199,0.0000000,0.0000000,0.0000040,0.0000000,0.0000000,0.0000000,0.0000199,0.0000000,0.0000000,0.0000040
485.5868140,1.3998500,,-0.9991258,0.0417201,-0.0015512,0.0021255,-0.0039233,-0.0005809,-0.0034565,,,,0.2118174,4.8160572,-15.9049530,0.0000000,0.0000000,0.0000000,0.0279970,0.0002005,0.0000000,0.0000000,0.0000200,0.0000000,0.0000000,0.0000000,0.0002005,0.0000000,0.0000000,0.0000200,0.0000000,0.0000000,0.0000000,0.0002005,0.0000000,0.0000000,0.0000200,0.0000200,0.0000000,0.0000000,0.0000040,0.0000000,0.0000000,0.0000000,0.0000200,0.0000000,0.0000000,0.0000040,0.0000000,0.0000000,0.0000000,0.0000200,0.0000000,0.0000000,0.0000040
485.6068060,1.0005001,,-0.9991258,0.0417201,-0.0015569,0.0021199,-0.0034341,0.0001826,-0.0034373,,,,0.2118174,4.8160572,-15.9049530,0.0000000,0.0000000,0.0000000,0.0200100,0.0002013,0.0000000,0.0000000,0.0000201,0.0000000,0.0000000,0.0000000,0.0002013,0.0000000,0.0000000,0.0000201,0.0000000,0.0000000,0.0000000,0.0002013,0.0000000,0.0000000,0.0000201,0.0000201,0.0000000,0.0000000,0.0000040,0.0000000,0.0000000,0.0000000,0.0000201,0.0000000,0.0000000,0.0000040,0.0000000,0.0000000,0.0000000,0.0000201,0.0000000,0.0000000,0.0000040
485.6280550,1.0495499,,-0.9991258,0.0417201,-0.0015685,0.0021240,-0.0058903,-0.0055240,-0.0002538,,,,0.2118174,4.8160572,-15.9049530,0.0000000,0.0000000,0.0000000,0.0209910,0.0002022,0.0000000,0.0000000,0.0000202,0.0000000,0.0000000,0.0000000,0.0002022,0.0000000,0.0000000,0.0000202,0.0000000,0.0000000,0.0000000,0.0002022,0.0000000,0.0000000,0.0000202,0.0000202,0.0000000,0.0000000,0.0000040,0.0000000,0.0000000,0.0000000,0.0000202,0.0000000,0.0000000,0.0000040,0.0000000,0.0000000,0.0000000,0.0000202,0.0000000,0.0000000,0.0000040
485.6478300,1.0005001,,-0.9991258,0.0417200,-0.0015877,0.0021121,-0.0027468,-0.0025484,0.0008497,,,,0.2118174,4.8160572,-15.9049530,0.0000000,0.0000000,0.0000000,0.0200100,0.0002030,0.0000000,0.0000000,0.0000203,0.0000000,0.0000000,0.0000000,0.0002030,0.0000000,0.0000000,0.0000203,0.0000000,0.0000000,0.0000000,0.0002030,0.0000000,0.0000000,0.0000203,0.0000203,0.0000000,0.0000000,0.0000040,0.0000000,0.0000000,0.0000000,0.0000203,0.0000000,0.0000000,0.0000040,0.0000000,0.0000000,0.0000000,0.0000203,0.0000000,0.0000000,0.0000040
485.6644610,,1.0000100,-0.9991258,0.0417200,-0.0015877,0.0021121,,,,0.0000000,0.0000000,0.0000000,0.2118174,4.8160572,-15.9049530,0.0000000,0.0000000,0.0000000,0.1000010,0.0001989,0.0000000,0.0000000,0.0000199,0.0000000,0.0000000,0.0000000,0.0001989,0.0000000,0.0000000,0.0000199,0.0000000,0.0000000,0.0000000,0.0001989,0.0000000,0.0000000,0.0000199,0.0000199,0.0000000,0.0000000,0.0000040,0.0000000,0.0000000,0.0000000,0.0000199,0.0000000,0.0000000,0.0000040,0.0000000,0.0000000,0.0000000,0.0000199,0.0000000,0.0000000,0.0000040
485.6776870,1.0998001,,-0.9991258,0.0417200,-0.0016121,0.0021236,0.0044097,0.0021514,-0.0015283,,,,0.2118174,4.8160572,-15.9049530,0.0000000,0.0000000,0.0000000,0.0219960,0.0001998,0.0000000,0.0000000,0.0000200,0.0000000,0.0000000,0.0000000,0.0001998,0.0000000,0.0000000,0.0000200,0.0000000,0.0000000,0.0000000,0.0001998,0.0000000,0.0000000,0.0000200,0.0000200,0.0000000,0.0000000,0.0000040,0.0000000,0.0000000,0.0000000,0.0000200,0.0000000,0.0000000,0.0000040,0.0000000,0.0000000,0.0000000,0.0000200,0.0000000,0.0000000,0.0000040
485.6907840,1.0497501,,-0.9991258,0.0417200,-0.0016111,0.0021120,0.0045928,0.0027542,0.0038745,,,,0.2118174,4.8160572,-15.9049530,0.0000000,0.0000000,0.0000000,0.0209950,0.0002006,0.0000000,0.0000000,0.0000200,0.0000000,0.0000000,0.0000000,0.0002006,0.0000000,0.0000000,0.0000200,0.0000000,0.0000000,0.0000000,0.0002006,0.0000000,0.0000000,0.0000200,0.0000200,0.0000000,0.0000000,0.0000040,0.0000000,0.0000000,0.0000000,0.0000200,0.0000000,0.0000000,0.0000040,0.0000000,0.0000000,0.0000000,0.0000200,0.0000000,0.0000000,0.0000040
485.7119360,1.0503000,,-0.9991258,0.0417200,-0.0016142,0.0021064,0.0024795,0.0057411,0.0043787,,,,0.2118174,4.8160572,-15.9049530,0.0000000,0.0000000,0.0000000,0.0210060,0.0002015,0.0000000,0.0000000,0.0000201,0.0000000,0.0000000,0.0000000,0.0002015,0.0000000,0.0000000,0.0000201,0.0000000,0.0000000,0.0000000,0.0002015,0.0000000,0.0000000,0.0000201,0.0000201,0.0000000,0.0000000,0.0000040,0.0000000,0.0000000,0.0000000,0.0000201,0.0000000,0.0000000,0.0000040,0.0000000,0.0000000,0.0000000,0.0000201,0.0000000,0.0000000,0.0000040
485.7320970,0.9997000,,-0.9991258,0.0417200,-0.0016171,0.0020985,0.0004463,0.0038090,0.0051190,,,,0.2118174,4.8160572,-15.9049530,0.0000000,0.0000000,0.0000000,0.0199940,0.0002023,0.0000000,0.0000000,0.0000202,0.0000000,0.0000000,0.0000000,0.0002023,0.0000000,0.0000000,0.0000202,0.0000000,0.0000000,0.0000000,0.0002023,0.0000000,0.0000000,0.0000202,0.0000202,0.0000000,0.0000000,0.0000040,0.0000000,0.0000000,0.0000000,0.0000202,0.0000000,0.0000000,0.0000040,0.0000000,0.0000000,0.0000000,0.0000202,0.0000000,0.0000000,0.0000040
485.7518990,1.0001501,,-0.9991258,0.0417200,-0.0015904,0.0021060,-0.0063763,-0.0017729,0.0052451,,,,0.2118174,4.8160572,-15.9049530,0.0000000,0.0000000,0.0000000,0.0200030,0.0002031,0.0000000,0.0000000,0.0000203,0.0000000,0.0000000,0.0000000,0.0002031,0.0000000,0.0000000,0.0000203,0.0000000,0.0000000,0.0000000,0.0002031,0.0000000,0.0000000,0.0000203,0.0000203,0.0000000,0.0000000,0.0000040,0.0000000,0.0000000,0.0000000,0.0000203,0.0000000,0.0000000,0.0000040,0.0000000,0.0000000,0.0000000,0.0000203,0.0000000,0.0000000,0.0000040
485.7678370,,1.0000000,-0.9991258,0.0417200,-0.0015904,0.0021060,,,,0.0000000,0.0000000,0.0000000,0.2118174,4.8160572,-15.9049530,0.0000000,0.0000000,0.0000000,0.1000000,0.0001991,0.0000000,0.0000000,0.0000199,0.0000000,0.0000000,0.0000000,0.0001991,0.0000000,0.0000000,0.0000199,0.0000000,0.0000000,0.0000000,0.0001991,0.0000000,0.0000000,0.0000199,0.0000199,0.0000000,0.0000000,0.0000040,0.0000000,0.0000000,0.0000000,0.0000199,0.0000000,0.0000000,0.0000040,0.0000000,0.0000000,0.0000000,0.0000199,0.0000000,0.0000000,0.0000040
485.7819130,1.0001501,,-0.9991258,0.0417201,-0.0015580,0.0021154,-0.0007162,-0.0060210,0.0062846,,,,0.2118174,4.8160572,-15.9049530,0.0000000,0.0000000,0.0000000,0.0200030,0.0001998,0.0000000,0.0000000,0.0000200,0.0000000,0.0000000,0.0000000,0.0001998,0.0000000,0.0000000,0.0000200,0.0000000,0.0000000,0.0000000,0.0001998,0.0000000,0.0000000,0.0000200,0.0000200,0.0000000,0.0000000,0.0000040,0.0000000,0.0000000,0.0000000,0.0000200,0.0000000,0.0000000,0.0000040,0.0000000,0.0000000,0.0000000,0.0000200,0.0000000,0.0000000,0.0000040
485.7946280,1.1496500,,-0.9991258,0.0417201,-0.0015708,0.0021162,0.0027928,0.0013688,-0.0007639,,,,0.2118174,4.8160572,-15.9049530,0.0000000,0.0000000,0.0000000,0.0229930,0.0002008,0.0000000,0.0000000,0.0000201,0.0000000,0.0000000,0.0000000,0.0002008,0.0000000,0.0000000,0.0000201,0.0000000,0.0000000,0.0000000,0.0002008,0.0000000,0.0000000,0.0000201,0.0000201,0.0000000,0.0000000,0.0000040,0.0000000,0.0000000,0.0000000,0.0000201,0.0000000,0.0000000,0.0000040,0.0000000,0.0000000,0.0000000,0.0000201,0.0000000,0.0000000,0.0000040
485.8159700,1.0504500,,-0.9991258,0.0417201,-0.0015959,0.0021372,0.0091479,-0.0056328,-0.0030675,,,,0.2118174,4.8160572,-15.9049530,0.0000000,0.0000000,0.0000000,0.0210090,0.0002016,0.0000000,0.0000000,0.0000201,0.0000000,0.0000000,0.0000000,0.0002016,0.0000000,0.0000000,0.0000201,0.0000000,0.0000000,0.0000000,0.0002016,0.0000000,0.0000000,0.0000201,0.0000201,0.0000000,0.0000000,0.0000040,0.0000000,0.0000000,0.0000000,0.0000201,0.0000000,0.0000000,0.0000040,0.0000000,0.0000000,0.0000000,0.0000201,0.0000000,0.0000000,0.0000040
485.8371700,1.0499500,,-0.9991257,0.0417201,-0.0016085,0.0021522,0.0093957,-0.0032665,-0.0071490,,,,0.2118174,4.8160572,-15.9049530,0.0000000,0.0000000,0.0000000,0.0209990,0.0002025,0.0000000,0.0000000,0.0000202,0.0000000,0.0000000,0.0000000,0.0002025,0.0000000,0.0000000,0.0000202,0.0000000,0.0000000,0.0000000,0.0002025,0.0000000,0.0000000,0.0000202,0.0000202,0.0000000,0.0000000,0.0000040,0.0000000,0.0000000,0.0000000,0.0000202,0.0000000,0.0000000,0.0000040,0.0000000,0.0000000,0.0000000,0.0000202,0.0000000,0.0000000,0.0000040
485.8588860,,1.0000100,-0.9991257,0.0417202,-0.0016040,0.0021637,,,,0.0000000,0.0000000,0.0000000,0.2118174,4.8160572,-15.9049530,0.0000000,0.0000000,0.0000000,0.1000010,0.0001984,0.0000000,0.0000000,0.0000198,0.0000000,0.0000000,0.0000000,0.0001984,0.0000000,0.0000000,0.0000198,0.0000000,0.0000000,0.0000000,0.0001984,0.0000000,0.0000000,0.0000198,0.0000198,0.0000000,0.0000000,0.0000040,0.0000000,0.0000000,0.0000000,0.0000198,0.0000000,0.0000000,0.0000040,0.0000000,0.0000000,0.0000000,0.0000198,0.0000000,0.0000000,0.0000040
485.8726330,1.0501001,,-0.9991257,0.0417202,-0.0016040,0.0021637,0.0044156,0.0028071,0.0017966,,,,0.2118174,4.8160572,-15.9049530,0.0000000,0.0000000,0.0000000,0.0210020,0.0001993,0.0000000,0.0000000,0.0000199,0.0000000,0.0000000,0.0000000,0.0001993,0.0000000,0.0000000,0.0000199,0.0000000,0.0000000,0.0000000,0.0001993,0.0000000,0.0000000,0.0000199,0.0000199,0.0000000,0.0000000,0.0000040,0.0000000,0.0000000,0.0000000,0.0000199,0.0000000,0.0000000,0.0000040,0.0000000,0.0000000,0.0000000,0.0000199,0.0000000,0.0000000,0.0000040
485.8860400,1.3998001,,-0.9991257,0.0417202,-0.0015928,0.0021654,-0.0014772,-0.0002673,0.0028514,,,,0.2118174,4.8160572,-15.9049530,0.0000000,0.0000000,0.0000000,0.0279960,0.0002004,0.0000000,0.0000000,0.0000200,0.0000000,0.0000000,0.0000000,0.0002004,0.0000000,0.0000000,0.0000200,0.0000000,0.0000000,0.0000000,0.0002004,0.0000000,0.0000000,0.0000200,0.0000200,0.0000000,0.0000000,0.0000040,0.0000000,0.0000000,0.0000000,0.0000200,0.0000000,0.0000000,0.0000040,0.0000000,0.0000000,0.0000000,0.0000200,0.0000000,0.0000000,0.0000040
485.9059650,1.0000000,,-0.9991257,0.0417202,-0.0015775,0.0021601,-0.0044007,-0.0005990,-0.0012598,,,,0.2118174,4.8160572,-15.9049530,0.0000000,0.0000000,0.0000000,0.0200000,0.0002012,0.0000000,0.0000000,0.0000201,0.0000000,0.0000000,0.0000000,0.0002012,0.0000000,0.0000000,0.0000201,0.0000000,0.0000000,0.0000000,0.0002012,0.0000000,0.0000000,0.0000201,0.0000201,0.0000000,0.0000000,0.0000040,0.0000000,0.0000000,0.0000000,0.0000201,0.0000000,0.0000000,0.0000040,0.0000000,0.0000000,0.0000000,0.0000201,0.0000000,0.0000000,0.0000040
485.9258970,1.0001501,,-0.9991257,0.0417202,-0.0015796,0.0021496,-0.0005143,0.0067882,-0.0035596,,,,0.2118174,4.8160572,-15.9049530,0.0000000,0.0000000,0.0000000,0.0200030,0.0002020,0.0000000,0.0000000,0.0000202,0.0000000,0.0000000,0.0000000,0.0002020,0.0000000,0.0000000,0.0000202,0.0000000,0.0000000,0.0000000,0.0002020,0.0000000,0.0000000,0.0000202,0.0000202,0.0000000,0.0000000,0.0000040,0.0000000,0.0000000,0.0000000,0.0000202,0.0000000,0.0000000,0.0000040,0.0000000,0.0000000,0.0000000,0.0000202,0.0000000,0.0000000,0.0000040
485.9456070,0.9997000,,-0.9991258,0.0417202,-0.0015814,0.0021019,0.0014213,0.0038061,-0.0020239,,,,0.2118174,4.8160572,-15.9049530,0.0000000,0.0000000,0.0000000,0.0199940,0.0002028,0.0000000,0.0000000,0.0000203,0.0000000,0.0000000,0.0000000,0.0002028,0.0000000,0.0000000,0.0000203,0.0000000,0.0000000,0.0000000,0.0002028,0.0000000,0.0000000,0.0000203,0.0000203,0.0000000,0.0000000,0.0000040,0.0000000,0.0000000,0.0000000,0.0000203,0.0000000,0.0000000,0.0000040,0.0000000,0.0000000,0.0000000,0.0000203,0.0000000,0.0000000,0.0000040
485.9618440,,0.9999700,-0.9991258,0.0417202,-0.0015814,0.0021019,,,,0.0000000,0.0000000,0.0000000,0.2118174,4.8160572,-15.9049530,0.0000000,0.0000000,0.0000000,0.0999970,0.0001988,0.0000000,0.0000000,0.0000199,0.0000000,0.0000000,0.0000000,0.0001988,0.0000000,0.0000000,0.0000199,0.0000000,0.0000000,0.0000000,0.0001988,0.0000000,0.0000000,0.0000199,0.0000199,0.0000000,0.0000000,0.0000040,0.0000000,0.0000000,0.0000000,0.0000199,0.0000000,0.0000000,0.0000040,0.0000000,0.0000000,0.0000000,0.0000199,0.0000000,0.0000000,0.0000040
485.9754880,1.0999000,,-0.9991258,0.0417202,-0.0015746,0.0021069,0.0009472,-0.0012860,0.0006970,,,,0.2118174,4.8160572,-15.9049530,0.0000000,0.0000000,0.0000000,0.0219980,0.0001996,0.0000000,0.0000000,0.0000199,0.0000000,0.0000000,0.0000000,0.0001996,0.0000000,0.0000000,0.0000199,0.0000000,0.0000000,0.0000000,0.0001996,0.0000000,0.0000000,0.0000199,0.0000199,0.0000000,0.0000000,0.0000040,0.0000000,0.0000000,0.0000000,0.0000199,0.0000000,0.0000000,0.0000040,0.0000000,0.0000000,0.0000000,0.0000199,0.0000000,0.0000000,0.0000040
485.9888280,1.0498999,,-0.9991258,0.0417203,-0.0015541,0.0021313,0.0024496,-0.0020850,-0.0016046,,,,0.2118174,4.8160572,-15.9049530,0.0000000,0.0000000,0.0000000,0.0209980,0.0002005,0.0000000,0.0000000,0.0000200,0.0000000,0.0000000,0.0000000,0.0002005,0.0000000,0.0000000,0.0000200,0.0000000,0.0000000,0.0000000,0.0002005,0.0000000,0.0000000,0.0000200,0.0000200,0.0000000,0.0000000,0.0000040,0.0000000,0.0000000,0.0000000,0.0000200,0.0000000,0.0000000,0.0000040,0.0000000,0.0000000,0.0000000,0.0000200,0.0000000,0.0000000,0.0000040
486.0102560,1.0000501,,-0.9991259,0.0417204,-0.0015055,0.0021339,-0.0025823,-0.0000659,0.0009067,,,,0.2118174,4.8160572,-15.9049530,0.0000000,0.0000000,0.0000000,0.0200010,0.0002013,0.0000000,0.0000000,0.0000201,0.0000000,0.0000000,0.0000000,0.0002013,0.0000000,0.0000000,0.0000201,0.0000000,0.0000000,0.0000000,0.0002013,0.0000000,0.0000000,0.0000201,0.0000201,0.0000000,0.0000000,0.0000040,0.0000000,0.0000000,0.0000000,0.0000201,0.0000000,0.0000000,0.0000040,0.0000000,0.0000000,0.0000000,0.0000201,0.0000000,0.0000000,0.0000040
486.0288770,0.9999500,,-0.9991260,0.0417205,-0.0014522,0.0021480,-0.0023516,0.0014548,0.0028947,,,,0.2118174,4.8160572,-15.9049530,0.0000000,0.0000000,0.0000000,0.0199990,0.0002021,0.0000000,0.0000000,0.0000202,0.0000000,0.0000000,0.0000000,0.0002021,0.0000000,0.0000000,0.0000202,0.0000000,0.0000000,0.0000000,0.0002021,0.0000000,0.0000000,0.0000202,0.0000202,0.0000000,0.0000000,0.0000040,0.0000000,0.0000000,0.0000000,0.0000202,0.0000000,0.0000000,0.0000040,0.0000000,0.0000000,0.0000000,0.0000202,0.0000000,0.0000000,0.0000040
486.0488950,1.0000501,,-0.9991260,0.0417206,-0.0014326,0.0021754,0.0023947,-0.0084813,0.0021798,,,,0.2118174,4.8160572,-15.9049530,0.0000000,0.0000000,0.0000000,0.0200010,0.0002029,0.0000000,0.0000000,0.0000203,0.0000000,0.0000000,0.0000000,0.0002029,0.0000000,0.0000000,0.0000203,0.0000000,0.0000000,0.0000000,0.0002029,0.0000000,0.0000000,0.0000203,0.0000203,0.0000000,0.0000000,0.0000040,0.0000000,0.0000000,0.0000000,0.0000203,0.0000000,0.0000000,0.0000040,0.0000000,0.0000000,0.0000000,0.0000203,0.0000000,0.0000000,0.0000040
486.0647800,,0.9999600,-0.9991260,0.0417206,-0.0014326,0.0021754,,,,0.0000000,0.0000000,0.0000000,0.2118174,4.8160572,-15.9049530,0.0000000,0.0000000,0.0000000,0.0999960,0.0001989,0.0000000,0.0000000,0.0000199,0.0000000,0.0000000,0.0000000,0.0001989,0.0000000,0.0000000,0.0000199,0.0000000,0.0000000,0.0000000,0.0001989,0.0000000,0.0000000,0.0000199,0.0000199,0.0000000,0.0000000,0.0000040,0.0000000,0.0000000,0.0000000,0.0000199,0.0000000,0.0000000,0.0000040,0.0000000,0.0000000,0.0000000,0.0000199,0.0000000,0.0000000,0.0000040
486.0784060,1.0004500,,-0.9991260,0.0417207,-0.0014174,0.0021889,-0.0025487,0.0014433,0.0040196,,,,0.2118174,4.8160572,-15.9049530,0.0000000,0.0000000,0.0000000,0.0200090,0.0001997,0.0000000,0.0000000,0.0000200,0.0000000,0.0000000,0.0000000,0.0001997,0.0000000,0.0000000,0.0000200,0.0000000,0.0000000,0.0000000,0.0001997,0.0000000,0.0000000,0.0000200,0.0000200,0.0000000,0.0000000,0.0000040,0.0000000,0.0000000,0.0000000,0.0000200,0.0000000,0.0000000,0.0000040,0.0000000,0.0000000,0.0000000,0.0000200,0.0000000,0.0000000,0.0000040
486.0918070,1.1496000,,-0.9991258,0.0417206,-0.0014557,0.0022034,0.0000150,-0.0045655,0.0010332,,,,0.2118174,4.8160572,-15.9049530,0.0000000,0.0000000,0.0000000,0.0229920,0.0002006,0.0000000,0.0000000,0.0000200,0.0000000,0.0000000,0.0000000,0.0002006,0.0000000,0.0000000,0.0000200,0.0000000,0.0000000,0.0000000,0.0002006,0.0000000,0.0000000,0.0000200,0.0000200,0.0000000,0.0000000,0.0000040,0.0000000,0.0000000,0.0000000,0.0000200,0.0000000,0.0000000,0.0000040,0.0000000,0.0000000,0.0000000,0.0000200,0.0000000,0.0000000,0.0000040
486.1131340,1.0499500,,-0.9991258,0.0417206,-0.0014796,0.0022024,-0.0038377,-0.0000168,-0.0041221,,,,0.2118174,4.8160572,-15.9049530,0.0000000,0.0000000,0.0000000,0.0209990,0.0002014,0.0000000,0.0000000,0.0000201,0.0000000,0.0000000,0.0000000,0.0002014,0.0000000,0.0000000,0.0000201,0.0000000,0.0000000,0.0000000,0.0002014,0.0000000,0.0000000,0.0000201,0.0000201,0.0000000,0.0000000,0.0000040,0.0000000,0.0000000,0.0000000,0.0000201,0.0000000,0.0000000,0.0000040,0.0000000,0.0000000,0.0000000,0.0000201,0.0000000,0.0000000,0.0000040
486.1329860,1.0004500,,-0.9991257,0.0417206,-0.0015100,0.0022264,0.0012779,-0.0040367,-0.0035259,,,,0.2118174,4.8160572,-15.9049530,0.0000000,0.0000000,0.0000000,0.0200090,0.0002022,0.0000000,0.0000000,0.0000202,0.0000000,0.0000000,0.0000000,0.0002022,0.0000000,0.0000000,0.0000202,0.0000000,0.0000000,0.0000000,0.0002022,0.0000000,0.0000000,0.0000202,0.0000202,0.0000000,0.0000000,0.0000040,0.0000000,0.0000000,0.0000000,0.0000202,0.0000000,0.0000000,0.0000040,0.0000000,0.0000000,0.0000000,0.0000202,0.0000000,0.0000000,0.0000040
486.1546040,0.9999500,,-0.9991256,0.0417206,-0.0015121,0.0022600,0.0041103,-0.0055203,-0.0027395,,,,0.2118174,4.8160572,-15.9049530,0.0000000,0.0000000,0.0000000,0.0199990,0.0002030,0.0000000,0.0000000,0.0000203,0.0000000,0.0000000,0.0000000,0.0002030,0.0000000,0.0000000,0.0000203,0.0000000,0.0000000,0.0000000,0.0002030,0.0000000,0.0000000,0.0000203,0.0000203,0.0000000,0.0000000,0.0000040,0.0000000,0.0000000,0.0000000,0.0000203,0.0000000,0.0000000,0.0000040,0.0000000,0.0000000,0.0000000,0.0000203,0.0000000,0.0000000,0.0000040
486.1706020,,1.0000600,-0.9991256,0.0417206,-0.0014964,0.0022794,,,,0.0000000,0.0000000,0.0000000,0.2118174,4.8160572,-15.9049530,0.0000000,0.0000000,0.0000000,0.1000060,0.0001990,0.0000000,0.0000000,0.0000199,0.0000000,0.0000000,0.0000000,0.0001990,0.0000000,0.0000000,0.0000199,0.0000000,0.0000000,0.0000000,0.0001990,0.0000000,0.0000000,0.0000199,0.0000199,0.0000000,0.0000000,0.0000040,0.0000000,0.0000000,0.0000000,0.0000199,0.0000000,0.0000000,0.0000040,0.0000000,0.0000000,0.0000000,0.0000199,0.0000000,0.0000000,0.0000040
486.1842720,0.9995500,,-0.9991256,0.0417207,-0.0014964,0.0022794,0.0009184,0.0032671,-0.0001490,,,,0.2118174,4.8160572,-15.9049530,0.0000000,0.0000000,0.0000000,0.0199910,0.0001998,0.0000000,0.0000000,0.0000200,0.0000000,0.0000000,0.0000000,0.0001998,0.0000000,0.0000000,0.0000200,0.0000000,0.0000000,0.0000000,0.0001998,0.0000000,0.0000000,0.0000200,0.0000200,0.0000000,0.0000000,0.0000040,0.0000000,0.0000000,0.0000000,0.0000200,0.0000000,0.0000000,0.0000040,0.0000000,0.0000000,0.0000000,0.0000200,0.0000000,0.0000000,0.0000040
486.1976610,1.2500000,,-0.9991256,0.0417208,-0.0014750,0.0022827,-0.0018678,-0.0004111,-0.0000745,,,,0.2118174,4.8160572,-15.9049530,0.0000000,0.0000000,0.0000000,0.0250000,0.0002008,0.0000000,0.0000000,0.0000201,0.0000000,0.0000000,0.0000000,0.0002008,0.0000000,0.0000000,0.0000201,0.0000000,0.0000000,0.0000000,0.0002008,0.0000000,0.0000000,0.0000201,0.0000201,0.0000000,0.0000000,0.0000040,0.0000000,0.0000000,0.0000000,0.0000201,0.0000000,0.0000000,0.0000040,0.0000000,0.0000000,0.0000000,0.0000201,0.0000000,0.0000000,0.0000040
486.2191650,1.0500500,,-0.9991256,0.0417208,-0.0014522,0.0022925,-0.0020173,0.0024037,0.0016717,,,,0.2118174,4.8160572,-15.9049530,0.0000000,0.0000000,0.0000000,0.0210010,0.0002016,0.0000000,0.0000000,0.0000201,0.0000000,0.0000000,0.0000000,0.0002016,0.0000000,0.0000000,0.0000201,0.0000000,0.0000000,0.0000000,0.0002016,0.0000000,0.0000000,0.0000201,0.0000201,0.0000000,0.0000000,0.0000040,0.0000000,0.0000000,0.0000000,0.0000201,0.0000000,0.0000000,0.0000040,0.0000000,0.0000000,0.0000000,0.0000201,0.0000000,0.0000000,0.0000040
486.2388780,0.9999500,,-0.9991256,0.0417209,-0.0014442,0.0023029,-0.0050293,0.0021097,0.0001034,,,,0.2118174,4.8160572,-15.9049530,0.0000000,0.0000000,0.0000000,0.0199990,0.0002024,0.0000000,0.0000000,0.0000202,0.0000000,0.0000000,0.0000000,0.0002024,0.0000000,0.0000000,0.0000202,0.0000000,0.0000000,0.0000000,0.0002024,0.0000000,0.0000000,0.0000202,0.0000202,0.0000000,0.0000000,0.0000040,0.0000000,0.0000000,0.0000000,0.0000202,0.0000000,0.0000000,0.0000040,0.0000000,0.0000000,0.0000000,0.0000202,0.0000000,0.0000000,0.0000040
486.2591470,,0.9999300,-0.9991256,0.0417209,-0.0014476,0.0022924,,,,0.0000000,0.0000000,0.0000000,0.2118174,4.8160572,-15.9049530,0.0000000,0.0000000,0.0000000,0.0999930,0.0001984,0.0000000,0.0000000,0.0000198,0.0000000,0.0000000,0.0000000,0.0001984,0.0000000,0.0000000,0.0000198,0.0000000,0.0000000,0.0000000,0.0001984,0.0000000,0.0000000,0.0000198,0.0000198,0.0000000,0.0000000,0.0000040,0.0000000,0.0000000,0.0000000,0.0000198,0.0000000,0.0000000,0.0000040,0.0000000,0.0000000,0.0000000,0.0000198,0.0000000,0.0000000,0.0000040
486.2736830,1.0001501,,-0.9991256,0.0417209,-0.0014476,0.0022924,0.0017502,0.0058385,-0.0014131,,,,0.2118174,4.8160572,-15.9049530,0.0000000,0.0000000,0.0000000,0.0200030,0.0001992,0.0000000,0.0000000,0.0000199,0.0000000,0.0000000,0.0000000,0.0001992,0.0000000,0.0000000,0.0000199,0.0000000,0.0000000,0.0000000,0.0001992,0.0000000,0.0000000,0.0000199,0.0000199,0.0000000,0.0000000,0.0000040,0.0000000,0.0000000,0.0000000,0.0000199,0.0000000,0.0000000,0.0000040,0.0000000,0.0000000,0.0000000,0.0000199,0.0000000,0.0000000,0.0000040
486.2868010,1.4007001,,-0.9991257,0.0417210,-0.0014195,0.0022919,-0.0018791,0.0035601,-0.0046128,,,,0.2118174,4.8160572,-15.9049530,0.0000000,0.0000000,0.0000000,0.0280140,0.0002003,0.0000000,0.0000000,0.0000200,0.0000000,0.0000000,0.0000000,0.0002003,0.0000000,0.0000000,0.0000200,0.0000000,0.0000000,0.0000000,0.0002003,0.0000000,0.0000000,0.0000200,0.0000200,0.0000000,0.0000000,0.0000040,0.0000000,0.0000000,0.0000000,0.0000200,0.0000000,0.0000000,0.0000040,0.0000000,0.0000000,0.0000000,0.0000200,0.0000000,0.0000000,0.0000040
486.3069250,0.9992500,,-0.9991257,0.0417210,-0.0014212,0.0022869,-0.0000622,-0.0007605,-0.0040154,,,,0.2118174,4.8160572,-15.9049530,0.0000000,0.0000000,0.0000000,0.0199850,0.0002011,0.0000000,0.0000000,0.0000201,0.0000000,0.0000000,0.0000000,0.0002011,0.0000000,0.0000000,0.0000201,0.0000000,0.0000000,0.0000000,0.0002011,0.0000000,0.0000000,0.0000201,0.0000201,0.0000000,0.0000000,0.0000040,0.0000000,0.0000000,0.0000000,0.0000201,0.0000000,0.0000000,0.0000040,0.0000000,0.0000000,0.0000000,0.0000201,0.0000000,0.0000000,0.0000040
486.3265730,1.0000000,,-0.9991256,0.0417209,-0.0014386,0.0022913,0.0044703,-0.0075443,-0.0037167,,,,0.2118174,4.8160572,-15.9049530,0.0000000,0.0000000,0.0000000,0.0200000,0.0002019,0.0000000,0.0000000,0.0000202,0.0000000,0.0000000,0.0000000,0.0002019,0.0000000,0.0000000,0.0000202,0.0000000,0.0000000,0.0000000,0.0002019,0.0000000,0.0000000,0.0000202,0.0000202,0.0000000,0.0000000,0.0000040,0.0000000,0.0000000,0.0000000,0.0000202,0.0000000,0.0000000,0.0000040,0.0000000,0.0000000,0.0000000,0.0000202,0.0000000,0.0000000,0.0000040
486.3468580,1.0003999,,-0.9991256,0.0417209,-0.0014420,0.0023018,-0.0017932,-0.0031084,-0.0023466,,,,0.2118174,4.8160572,-15.9049530,0.0000000,0.0000000,0.0000000,0.0200080,0.0002027,0.0000000,0.0000000,0.0000203,0.0000000,0.0000000,0.0000000,0.0002027,0.0000000,0.0000000,0.0000203,0.0000000,0.0000000,0.0000000,0.0002027,0.0000000,0.0000000,0.0000203,0.0000203,0.0000000,0.0000000,0.0000040,0.0000000,0.0000000,0.0000000,0.0000203,0.0000000,0.0000000,0.0000040,0.0000000,0.0000000,0.0000000,0.0000203,0.0000000,0.0000000,0.0000040
486.3643560,,1.0000299,-0.9991256,0.0417209,-0.0014420,0.0023018,,,,0.0000000,0.0000000,0.0000000,0.2118174,4.8160572,-15.9049530,0.0000000,0.0000000,0.0000000,0.1000030,0.0001987,0.0000000,0.0000000,0.0000199,0.0000000,0.0000000,0.0000000,0.0001987,0.0000000,0.0000000,0.0000199,0.0000000,0.0000000,0.0000000,0.0001987,0.0000000,0.0000000,0.0000199,0.0000199,0.0000000,0.0000000,0.0000040,0.0000000,0.0000000,0.0000000,0.0000199,0.0000000,0.0000000,0.0000040,0.0000000,0.0000000,0.0000000,0.0000199,0.0000000,0.0000000,0.0000040
486.3776910,0.9996500,,-0.9991255,0.0417210,-0.0014477,0.0023275,0.0050772,-0.0037743,-0.0019134,,,,0.2118174,4.8160572,-15.9049530,0.0000000,0.0000000,0.0000000,0.0199930,0.0001995,0.0000000,0.0000000,0.0000199,0.0000000,0.0000000,0.0000000,0.0001995,0.0000000,0.0000000,0.0000199,0.0000000,0.0000000,0.0000000,0.0001995,0.0000000,0.0000000,0.0000199,0.0000199,0.0000000,0.0000000,0.0000040,0.0000000,0.0000000,0.0000000,0.0000199,0.0000000,0.0000000,0.0000040,0.0000000,0.0000000,0.0000000,0.0000199,0.0000000,0.0000000,0.0000040
486.3909540,1.1999000,,-0.9991255,0.0417210,-0.0014404,0.0023447,0.0007228,-0.0128888,0.0019654,,,,0.2118174,4.8160572,-15.9049530,0.0000000,0.0000000,0.0000000,0.0239980,0.0002005,0.0000000,0.0000000,0.0000200,0.0000000,0.0000000,0.0000000,0.0002005,0.0000000,0.0000000,0.0000200,0.0000000,0.0000000,0.0000000,0.0002005,0.0000000,0.0000000,0.0000200,0.0000200,0.0000000,0.0000000,0.0000040,0.0000000,0.0000000,0.0000000,0.0000200,0.0000000,0.0000000,0.0000040,0.0000000,0.0000000,0.0000000,0.0000200,0.0000000,0.0000000,0.0000040
486.4121880,1.0000501,,-0.9991255,0.0417211,-0.0014136,0.0023616,-0.0006762,-0.0040030,-0.0046325,,,,0.2118174,4.8160572,-15.9049530,0.0000000,0.0000000,0.0000000,0.0200010,0.0002013,0.0000000,0.0000000,0.0000201,0.0000000,0.0000000,0.0000000,0.0002013,0.0000000,0.0000000,0.0000201,0.0000000,0.0000000,0.0000000,0.0002013,0.0000000,0.0000000,0.0000201,0.0000201,0.0000000,0.0000000,0.0000040,0.0000000,0.0000000,0.0000000,0.0000201,0.0000000,0.0000000,0.0000040,0.0000000,0.0000000,0.0000000,0.0000201,0.0000000,0.0000000,0.0000040
486.4307340,1.0002000,,-0.9991255,0.0417212,-0.0014022,0.0023834,0.0008216,-0.0029552,-0.0030563,,,,0.2118174,4.8160572,-15.9049530,0.0000000,0.0000000,0.0000000,0.0200040,0.0002021,0.0000000,0.0000000,0.0000202,0.0000000,0.0000000,0.0000000,0.0002021,0.0000000,0.0000000,0.0000202,0.0000000,0.0000000,0.0000000,0.0002021,0.0000000,0.0000000,0.0000202,0.0000202,0.0000000,0.0000000,0.0000040,0.0000000,0.0000000,0.0000000,0.0000202,0.0000000,0.0000000,0.0000040,0.0000000,0.0000000,0.0000000,0.0000202,0.0000000,0.0000000,0.0000040
486.4510500,1.0000501,,-0.9991254,0.0417212,-0.0014221,0.0023961,0.0046909,-0.0024236,-0.0025124,,,,0.2118174,4.8160572,-15.9049530,0.0000000,0.0000000,0.0000000,0.0200010,0.0002029,0.0000000,0.0000000,0.0000203,0.0000000,0.0000000,0.0000000,0.0002029,0.0000000,0.0000000,0.0000203,0.0000000,0.0000000,0.0000000,0.0002029,0.0000000,0.0000000,0.0000203,0.0000203,0.0000000,0.0000000,0.0000040,0.0000000,0.0000000,0.0000000,0.0000203,0.0000000,0.0000000,0.0000040,0.0000000,0.0000000,0.0000000,0.0000203,0.0000000,0.0000000,0.0000040
486.4667960,,1.0199599,-0.9991254,0.0417212,-0.0014221,0.0023864,,,,0.0000000,0.0000000,0.0000000,0.2118174,4.8160572,-15.9049530,0.0000000,0.0000000,0.0000000,0.1019960,0.0001988,0.0000000,0.0000000,0.0000199,0.0000000,0.0000000,0.0000000,0.0001988,0.0000000,0.0000000,0.0000199,0.0000000,0.0000000,0.0000000,0.0001988,0.0000000,0.0000000,0.0000199,0.0000199,0.0000000,0.0000000,0.0000040,0.0000000,0.0000000,0.0000000,0.0000199,0.0000000,0.0000000,0.0000040,0.0000000,0.0000000,0.0000000,0.0000199,0.0000000,0.0000000,0.0000040
486.4806110,0.9999000,,-0.9991255,0.0417212,-0.0014093,0.0023864,-0.0008971,-0.0034167,-0.0036976,,,,0.2118174,4.8160572,-15.9049530,0.0000000,0.0000000,0.0000000,0.0199980,0.0001996,0.0000000,0.0000000,0.0000199,0.0000000,0.0000000,0.0000000,0.0001996,0.0000000,0.0000000,0.0000199,0.0000000,0.0000000,0.0000000,0.0001996,0.0000000,0.0000000,0.0000199,0.0000199,0.0000000,0.0000000,0.0000040,0.0000000,0.0000000,0.0000000,0.0000199,0.0000000,0.0000000,0.0000040,0.0000000,0.0000000,0.0000000,0.0000199,0.0000000,0.0000000,0.0000040
486.4937390,1.1497501,,-0.9991255,0.0417212,-0.0014141,0.0023831,-0.0010284,0.0021979,-0.0021006,,,,0.2118174,4.8160572,-15.9049530,0.0000000,0.0000000,0.0000000,0.0229950,0.0002005,0.0000000,0.0000000,0.0000200,0.0000000,0.0000000,0.0000000,0.0002005,0.0000000,0.0000000,0.0000200,0.0000000,0.0000000,0.0000000,0.0002005,0.0000000,0.0000000,0.0000200,0.0000200,0.0000000,0.0000000,0.0000040,0.0000000,0.0000000,0.0000000,0.0000200,0.0000000,0.0000000,0.0000040,0.0000000,0.0000000,0.0000000,0.0000200,0.0000000,0.0000000,0.0000040
486.5149200,1.0503500,,-0.9991255,0.0417211,-0.0014276,0.0023678,0.0027893,0.0003360,-0.0003179,,,,0.2118174,4.8160572,-15.9049530,0.0000000,0.0000000,0.0000000,0.0210070,0.0002014,0.0000000,0.0000000,0.0000201,0.0000000,0.0000000,0.0000000,0.0002014,0.0000000,0.0000000,0.0000201,0.0000000,0.0000000,0.0000000,0.0002014,0.0000000,0.0000000,0.0000201,0.0000201,0.0000000,0.0000000,0.0000040,0.0000000,0.0000000,0.0000000,0.0000201,0.0000000,0.0000000,0.0000040,0.0000000,0.0000000,0.0000000,0.0000201,0.0000000,0.0000000,0.0000040
486.5348270,0.9997000,,-0.9991255,0.0417211,-0.0014262,0.0023508,0.0042252,-0.0025633,-0.0004031,,,,0.2118174,4.8160572,-15.9049530,0.0000000,0.0000000,0.0000000,0.0199940,0.0002022,0.0000000,0.0000000,0.0000202,0.0000000,0.0000000,0.0000000,0.0002022,0.0000000,0.0000000,0.0000202,0.0000000,0.0000000,0.0000000,0.0002022,0.0000000,0.0000000,0.0000202,0.0000202,0.0000000,0.0000000,0.0000040,0.0000000,0.0000000,0.0000000,0.0000202,0.0000000,0.0000000,0.0000040,0.0000000,0.0000000,0.0000000,0.0000202,0.0000000,0.0000000,0.0000040
486.5551370,0.9999500,,-0.9991255,0.0417211,-0.0014324,0.0023508,0.0049278,-0.0008239,-0.0102113,,,,0.2118174,4.8160572,-15.9049530,0.0000000,0.0000000,0.0000000,0.0199990,0.0002030,0.0000000,0.0000000,0.0000203,0.0000000,0.0000000,0.0000000,0.0002030,0.0000000,0.0000000,0.0000203,0.0000000,0.0000000,0.0000000,0.0002030,0.0000000,0.0000000,0.0000203,0.0000203,0.0000000,0.0000000,0.0000040,0.0000000,0.0000000,0.0000000,0.0000203,0.0000000,0.0000000,0.0000040,0.0000000,0.0000000,0.0000000,0.0000203,0.0000000,0.0000000,0.0000040
486.5717060,,1.0000401,-0.9991255,0.0417211,-0.0014324,0.0023449,,,,0.0000000,0.0000000,0.0000000,0.2118174,4.8160572,-15.9049530,0.0000000,0.0000000,0.0000000,0.1000040,0.0001990,0.0000000,0.0000000,0.0000199,0.0000000,0.0000000,0.0000000,0.0001990,0.0000000,0.0000000,0.0000199,0.0000000,0.0000000,0.0000000,0.0001990,0.0000000,0.0000000,0.0000199,0.0000199,0.0000000,0.0000000,0.0000040,0.0000000,0.0000000,0.0000000,0.0000199,0.0000000,0.0000000,0.0000040,0.0000000,0.0000000,0.0000000,0.0000199,0.0000000,0.0000000,0.0000040
486.5855830,1.0005001,,-0.9991255,0.0417211,-0.0014431,0.0023449,0.0018459,0.0005265,-0.0075471,,,,0.2118174,4.8160572,-15.9049530,0.0000000,0.0000000,0.0000000,0.0200100,0.0001998,0.0000000,0.0000000,0.0000200,0.0000000,0.0000000,0.0000000,0.0001998,0.0000000,0.0000000,0.0000200,0.0000000,0.0000000,0.0000000,0.0001998,0.0000000,0.0000000,0.0000200,0.0000200,0.0000000,0.0000000,0.0000040,0.0000000,0.0000000,0.0000000,0.0000200,0.0000000,0.0000000,0.0000040,0.0000000,0.0000000,0.0000000,0.0000200,0.0000000,0.0000000,0.0000040
486.5986650,1.1995000,,-0.9991254,0.0417211,-0.0014593,0.0023680,0.0032118,-0.0019188,-0.0071991,,,,0.2118174,4.8160572,-15.9049530,0.0000000,0.0000000,0.0000000,0.0239900,0.0002007,0.0000000,0.0000000,0.0000201,0.0000000,0.0000000,0.0000000,0.0002007,0.0000000,0.0000000,0.0000201,0.0000000,0.0000000,0.0000000,0.0002007,0.0000000,0.0000000,0.0000201,0.0000201,0.0000000,0.0000000,0.0000040,0.0000000,0.0000000,0.0000000,0.0000201,0.0000000,0.0000000,0.0000040,0.0000000,0.0000000,0.0000000,0.0000201,0.0000000,0.0000000,0.0000040
486.6199440,1.0504000,,-0.9991254,0.0417211,-0.0014788,0.0023859,-0.0007668,-0.0077724,-0.0038513,,,,0.2118174,4.8160572,-15.9049530,0.0000000,0.0000000,0.0000000,0.0210080,0.0002016,0.0000000,0.0000000,0.0000201,0.0000000,0.0000000,0.0000000,0.0002016,0.0000000,0.0000000,0.0000201,0.0000000,0.0000000,0.0000000,0.0002016,0.0000000,0.0000000,0.0000201,0.0000201,0.0000000,0.0000000,0.0000040,0.0000000,0.0000000,0.0000000,0.0000201,0.0000000,0.0000000,0.0000040,0.0000000,0.0000000,0.0000000,0.0000201,0.0000000,0.0000000,0.0000040
486.6398350,0.9997000,,-0.9991254,0.0417211,-0.0014879,0.0023896,0.0031108,-0.0043592,-0.0036423,,,,0.2118174,4.8160572,-15.9049530,0.0000000,0.0000000,0.0000000,0.0199940,0.0002024,0.0000000,0.0000000,0.0000202,0.0000000,0.0000000,0.0000000,0.0002024,0.0000000,0.0000000,0.0000202,0.0000000,0.0000000,0.0000000,0.0002024,0.0000000,0.0000000,0.0000202,0.0000202,0.0000000,0.0000000,0.0000040,0.0000000,0.0000000,0.0000000,0.0000202,0.0000000,0.0000000,0.0000040,0.0000000,0.0000000,0.0000000,0.0000202,0.0000000,0.0000000,0.0000040
486.6610920,,0.9999800,-0.9991252,0.0417211,-0.0015050,0.0024133,,,,0.0000000,0.0000000,0.0000000,0.2118174,4.8160572,-15.9049530,0.0000000,0.0000000,0.0000000,0.0999980,0.0001983,0.0000000,0.0000000,0.0000198,0.0000000,0.0000000,0.0000000,0.0001983,0.0000000,0.0000000,0.0000198,0.0000000,0.0000000,0.0000000,0.0001983,0.0000000,0.0000000,0.0000198,0.0000198,0.0000000,0.0000000,0.0000040,0.0000000,0.0000000,0.0000000,0.0000198,0.0000000,0.0000000,0.0000040,0.0000000,0.0000000,0.0000000,0.0000198,0.0000000,0.0000000,0.0000040
486.6758190,1.0000000,,-0.9991252,0.0417211,-0.0015050,0.0024133,0.0025778,-0.0013862,-0.0030495,,,,0.2118174,4.8160572,-15.9049530,0.0000000,0.0000000,0.0000000,0.0200000,0.0001991,0.0000000,0.0000000,0.0000199,0.0000000,0.0000000,0.0000000,0.0001991,0.0000000,0.0000000,0.0000199,0.0000000,0.0000000,0.0000000,0.0001991,0.0000000,0.0000000,0.0000199,0.0000199,0.0000000,0.0000000,0.0000040,0.0000000,0.0000000,0.0000000,0.0000199,0.0000000,0.0000000,0.0000040,0.0000000,0.0000000,0.0000000,0.0000199,0.0000000,0.0000000,0.0000040
486.6888370,1.4499000,,-0.9991252,0.0417210,-0.0015334,0.0024174,0.0037379,0.0039914,-0.0020206,,,,0.2118174,4.8160572,-15.9049530,0.0000000,0.0000000,0.0000000,0.0289980,0.0002003,0.0000000,0.0000000,0.0000200,0.0000000,0.0000000,0.0000000,0.0002003,0.0000000,0.0000000,0.0000200,0.0000000,0.0000000,0.0000000,0.0002003,0.0000000,0.0000000,0.0000200,0.0000200,0.0000000,0.0000000,0.0000040,0.0000000,0.0000000,0.0000000,0.0000200,0.0000000,0.0000000,0.0000040,0.0000000,0.0000000,0.0000000,0.0000200,0.0000000,0.0000000,0.0000040
486.7088750,1.0001000,,-0.9991252,0.0417209,-0.0015801,0.0023793,0.0076673,0.0073363,-0.0046801,,,,0.2118174,4.8160572,-15.9049530,0.0000000,0.0000000,0.0000000,0.0200020,0.0002011,0.0000000,0.0000000,0.0000201,0.0000000,0.0000000,0.0000000,0.0002011,0.0000000,0.0000000,0.0000201,0.0000000,0.0000000,0.0000000,0.0002011,0.0000000,0.0000000,0.0000201,0.0000201,0.0000000,0.0000000,0.0000040,0.0000000,0.0000000,0.0000000,0.0000201,0.0000000,0.0000000,0.0000040,0.0000000,0.0000000,0.0000000,0.0000201,0.0000000,0.0000000,0.0000040
486.7287190,1.0005001,,-0.9991252,0.0417208,-0.0015915,0.0023601,0.0084342,0.0058349,-0.0038125,,,,0.2118174,4.8160572,-15.9049530,0.0000000,0.0000000,0.0000000,0.0200100,0.0002019,0.0000000,0.0000000,0.0000202,0.0000000,0.0000000,0.0000000,0.0002019,0.0000000,0.0000000,0.0000202,0.0000000,0.0000000,0.0000000,0.0002019,0.0000000,0.0000000,0.0000202,0.0000202,0.0000000,0.0000000,0.0000040,0.0000000,0.0000000,0.0000000,0.0000202,0.0000000,0.0000000,0.0000040,0.0000000,0.0000000,0.0000000,0.0000202,0.0000000,0.0000000,0.0000040
486.7497520,1.0495000,,-0.9991252,0.0417208,-0.0016039,0.0023583,0.0073451,0.0024139,-0.0045994,,,,0.2118174,4.8160572,-15.9049530,0.0000000,0.0000000,0.0000000,0.0209900,0.0002027,0.0000000,0.0000000,0.0000203,0.0000000,0.0000000,0.0000000,0.0002027,0.0000000,0.0000000,0.0000203,0.0000000,0.0000000,0.0000000,0.0002027,0.0000000,0.0000000,0.0000203,0.0000203,0.0000000,0.0000000,0.0000040,0.0000000,0.0000000,0.0000000,0.0000203,0.0000000,0.0000000,0.0000040,0.0000000,0.0000000,0.0000000,0.0000203,0.0000000,0.0000000,0.0000040
486.7659980,,1.0200800,-0.9991252,0.0417208,-0.0016039,0.0023583,,,,0.0000000,0.0000000,0.0000000,0.2118174,4.8160572,-15.9049530,0.0000000,0.0000000,0.0000000,0.1020080,0.0001987,0.0000000,0.0000000,0.0000199,0.0000000,0.0000000,0.0000000,0.0001987,0.0000000,0.0000000,0.0000199,0.0000000,0.0000000,0.0000000,0.0001987,0.0000000,0.0000000,0.0000199,0.0000199,0.0000000,0.0000000,0.0000040,0.0000000,0.0000000,0.0000000,0.0000199,0.0000000,0.0000000,0.0000040,0.0000000,0.0000000,0.0000000,0.0000199,0.0000000,0.0000000,0.0000040
486.7795030,1.0000000,,-0.9991252,0.0417208,-0.0016062,0.0023586,0.0065641,-0.0007614,-0.0025515,,,,0.2118174,4.8160572,-15.9049530,0.0000000,0.0000000,0.0000000,0.0200000,0.0001995,0.0000000,0.0000000,0.0000199,0.0000000,0.0000000,0.0000000,0.0001995,0.0000000,0.0000000,0.0000199,0.0000000,0.0000000,0.0000000,0.0001995,0.0000000,0.0000000,0.0000199,0.0000199,0.0000000,0.0000000,0.0000040,0.0000000,0.0000000,0.0000000,0.0000199,0.0000000,0.0000000,0.0000040,0.0000000,0.0000000,0.0000000,0.0000199,0.0000000,0.0000000,0.0000040
486.7927390,1.1499000,,-0.9991252,0.0417208,-0.0016222,0.0023676,0.0071196,-0.0047676,-0.0005509,,,,0.2118174,4.8160572,-15.9049530,0.0000000,0.0000000,0.0000000,0.0229980,0.0002004,0.0000000,0.0000000,0.0000200,0.0000000,0.0000000,0.0000000,0.0002004,0.0000000,0.0000000,0.0000200,0.0000000,0.0000000,0.0000000,0.0002004,0.0000000,0.0000000,0.0000200,0.0000200,0.0000000,0.0000000,0.0000040,0.0000000,0.0000000,0.0000000,0.0000200,0.0000000,0.0000000,0.0000040,0.0000000,0.0000000,0.0000000,0.0000200,0.0000000,0.0000000,0.0000040
486.8131480,1.0000501,,-0.9991251,0.0417208,-0.0016386,0.0023686,0.0081146,-0.0048252,0.0019142,,,,0.2118174,4.8160572,-15.9049530,0.0000000,0.0000000,0.0000000,0.0200010,0.0002012,0.0000000,0.0000000,0.0000201,0.0000000,0.0000000,0.0000000,0.0002012,0.0000000,0.0000000,0.0000201,0.0000000,0.0000000,0.0000000,0.0002012,0.0000000,0.0000000,0.0000201,0.0000201,0.0000000,0.0000000,0.0000040,0.0000000,0.0000000,0.0000000,0.0000201,0.0000000,0.0000000,0.0000040,0.0000000,0.0000000,0.0000000,0.0000201,0.0000000,0.0000000,0.0000040
486.8329610,1.0001501,,-0.9991251,0.0417209,-0.0016061,0.0023902,0.0013717,-0.0077456,-0.0061306,,,,0.2118174,4.8160572,-15.9049530,0.0000000,0.0000000,0.0000000,0.0200030,0.0002020,0.0000000,0.0000000,0.0000202,0.0000000,0.0000000,0.0000000,0.0002020,0.0000000,0.0000000,0.0000202,0.0000000,0.0000000,0.0000000,0.0002020,0.0000000,0.0000000,0.0000202,0.0000202,0.0000000,0.0000000,0.0000040,0.0000000,0.0000000,0.0000000,0.0000202,0.0000000,0.0000000,0.0000040,0.0000000,0.0000000,0.0000000,0.0000202,0.0000000,0.0000000,0.0000040
486.8537340,1.0498999,,-0.9991251,0.0417210,-0.0015759,0.0023989,-0.0066155,-0.0060395,-0.0050261,,,,0.2118174,4.8160572,-15.9049530,0.0000000,0.0000000,0.0000000,0.0209980,0.0002029,0.0000000,0.0000000,0.0000203,0.0000000,0.0000000,0.0000000,0.0002029,0.0000000,0.0000000,0.0000203,0.0000000,0.0000000,0.0000000,0.0002029,0.0000000,0.0000000,0.0000203,0.0000203,0.0000000,0.0000000,0.0000040,0.0000000,0.0000000,0.0000000,0.0000203,0.0000000,0.0000000,0.0000040,0.0000000,0.0000000,0.0000000,0.0000203,0.0000000,0.0000000,0.0000040
486.8701660,,1.0000299,-0.9991251,0.0417210,-0.0015759,0.0023989,,,,0.0000000,0.0000000,0.0000000,0.2118174,4.8160572,-15.9049530,0.0000000,0.0000000,0.0000000,0.1000030,0.0001988,0.0000000,0.0000000,0.0000199,0.0000000,0.0000000,0.0000000,0.0001988,0.0000000,0.0000000,0.0000199,0.0000000,0.0000000,0.0000000,0.0001988,0.0000000,0.0000000,0.0000199,0.0000199,0.0000000,0.0000000,0.0000040,0.0000000,0.0000000,0.0000000,0.0000199,0.0000000,0.0000000,0.0000040,0.0000000,0.0000000,0.0000000,0.0000199,0.0000000,0.0000000,0.0000040
