t,predict_cpu,update_cpu,quat_x,quat_y,quat_z,quat_w,accel_x,accel_y,accel_z,of_x,of_y,of_z,x_x,x_y,x_z,x_vx,x_vy,x_vz,dt,P_0,P_1,P_2,P_3,P_4,P_5,P_6,P_7,P_8,P_9,P_10,P_11,P_12,P_13,P_14,P_15,P_16,P_17,P_18,P_19,P_20,P_21,P_22,P_23,P_24,P_25,P_26,P_27,P_28,P_29,P_30,P_31,P_32,P_33,P_34,P_35
76.9336100,1.0003500,,-0.9674635,-0.2529985,-0.0000565,0.0024646,-0.0011364,-0.0014554,-0.0056590,,,,1.0560272,-4.1295524,-10.7505894,0.0000000,0.0000000,0.0000000,0.0200070,0.0002014,0.0000000,0.0000000,0.0000201,0.0000000,0.0000000,0.0000000,0.0002014,0.0000000,0.0000000,0.0000201,0.0000000,0.0000000,0.0000000,0.0002014,0.0000000,0.0000000,0.0000201,0.0000201,0.0000000,0.0000000,0.0000040,0.0000000,0.0000000,0.0000000,0.0000201,0.0000000,0.0000000,0.0000040,0.0000000,0.0000000,0.0000000,0.0000201,0.0000000,0.0000000,0.0000040
76.9546110,1.0495499,,-0.9674635,-0.2529985,-0.0000499,0.0024573,0.0019495,0.0035905,0.0003443,,,,1.0560272,-4.1295524,-10.7505894,0.0000000,0.0000000,0.0000000,0.0209910,0.0002023,0.0000000,0.0000000,0.0000202,0.0000000,0.0000000,0.0000000,0.0002023,0.0000000,0.0000000,0.0000202,0.0000000,0.0000000,0.0000000,0.0002023,0.0000000,0.0000000,0.0000202,0.0000202,0.0000000,0.0000000,0.0000040,0.0000000,0.0000000,0.0000000,0.0000202,0.0000000,0.0000000,0.0000040,0.0000000,0.0000000,0.0000000,0.0000202,0.0000000,0.0000000,0.0000040
76.9756610,1.0498999,,-0.9674636,-0.2529985,-0.0000638,0.0024313,0.0059110,0.0065484,0.0013929,,,,1.0560272,-4.1295524,-10.7505894,0.0000000,0.0000000,0.0000000,0.0209980,0.0002031,0.0000000,0.0000000,0.0000203,0.0000000,0.0000000,0.0000000,0.0002031,0.0000000,0.0000000,0.0000203,0.0000000,0.0000000,0.0000000,0.0002031,0.0000000,0.0000000,0.0000203,0.0000203,0.0000000,0.0000000,0.0000040,0.0000000,0.0000000,0.0000000,0.0000203,0.0000000,0.0000000,0.0000040,0.0000000,0.0000000,0.0000000,0.0000203,0.0000000,0.0000000,0.0000040
76.9916620,,0.9999700,-0.9674636,-0.2529985,-0.0000638,0.0024313,,,,0.0000000,0.0000000,0.0000000,1.0560272,-4.1295524,-10.7505894,0.0000000,0.0000000,0.0000000,0.0999970,0.0001991,0.0000000,0.0000000,0.0000199,0.0000000,0.0000000,0.0000000,0.0001991,0.0000000,0.0000000,0.0000199,0.0000000,0.0000000,0.0000000,0.0001991,0.0000000,0.0000000,0.0000199,0.0000199,0.0000000,0.0000000,0.0000040,0.0000000,0.0000000,0.0000000,0.0000199,0.0000000,0.0000000,0.0000040,0.0000000,0.0000000,0.0000000,0.0000199,0.0000000,0.0000000,0.0000040
77.0054030,1.0000000,,-0.9674636,-0.2529986,-0.0000729,0.0024241,0.0059309,0.0038845,0.0031378,,,,1.0560272,-4.1295524,-10.7505894,0.0000000,0.0000000,0.0000000,0.0200000,0.0001999,0.0000000,0.0000000,0.0000200,0.0000000,0.0000000,0.0000000,0.0001999,0.0000000,0.0000000,0.0000200,0.0000000,0.0000000,0.0000000,0.0001999,0.0000000,0.0000000,0.0000200,0.0000200,0.0000000,0.0000000,0.0000040,0.0000000,0.0000000,0.0000000,0.0000200,0.0000000,0.0000000,0.0000040,0.0000000,0.0000000,0.0000000,0.0000200,0.0000000,0.0000000,0.0000040
77.0189160,1.1501000,,-0.9674636,-0.2529986,-0.0000689,0.0024144,-0.0003838,0.0042540,0.0037662,,,,1.0560272,-4.1295524,-10.7505894,0.0000000,0.0000000,0.0000000,0.0230020,0.0002008,0.0000000,0.0000000,0.0000201,0.0000000,0.0000000,0.0000000,0.0002008,0.0000000,0.0000000,0.0000201,0.0000000,0.0000000,0.0000000,0.0002008,0.0000000,0.0000000,0.0000201,0.0000201,0.0000000,0.0000000,0.0000040,0.0000000,0.0000000,0.0000000,0.0000201,0.0000000,0.0000000,0.0000040,0.0000000,0.0000000,0.0000000,0.0000201,0.0000000,0.0000000,0.0000040
77.0385940,1.0004500,,-0.9674636,-0.2529986,-0.0000904,0.0024122,-0.0026181,0.0007690,0.0043245,,,,1.0560272,-4.1295524,-10.7505894,0.0000000,0.0000000,0.0000000,0.0200090,0.0002016,0.0000000,0.0000000,0.0000201,0.0000000,0.0000000,0.0000000,0.0002016,0.0000000,0.0000000,0.0000201,0.0000000,0.0000000,0.0000000,0.0002016,0.0000000,0.0000000,0.0000201,0.0000201,0.0000000,0.0000000,0.0000040,0.0000000,0.0000000,0.0000000,0.0000201,0.0000000,0.0000000,0.0000040,0.0000000,0.0000000,0.0000000,0.0000201,0.0000000,0.0000000,0.0000040
77.0596480,1.0496000,,-0.9674636,-0.2529986,-0.0000712,0.0024055,-0.0061156,0.0004989,0.0063126,,,,1.0560272,-4.1295524,-10.7505894,0.0000000,0.0000000,0.0000000,0.0209920,0.0002025,0.0000000,0.0000000,0.0000202,0.0000000,0.0000000,0.0000000,0.0002025,0.0000000,0.0000000,0.0000202,0.0000000,0.0000000,0.0000000,0.0002025,0.0000000,0.0000000,0.0000202,0.0000202,0.0000000,0.0000000,0.0000040,0.0000000,0.0000000,0.0000000,0.0000202,0.0000000,0.0000000,0.0000040,0.0000000,0.0000000,0.0000000,0.0000202,0.0000000,0.0000000,0.0000040
77.0805790,1.0498999,,-0.9674636,-0.2529985,-0.0000549,0.0024268,-0.0017608,0.0043236,0.0090157,,,,1.0560272,-4.1295524,-10.7505894,0.0000000,0.0000000,0.0000000,0.0209980,0.0002033,0.0000000,0.0000000,0.0000203,0.0000000,0.0000000,0.0000000,0.0002033,0.0000000,0.0000000,0.0000203,0.0000000,0.0000000,0.0000000,0.0002033,0.0000000,0.0000000,0.0000203,0.0000203,0.0000000,0.0000000,0.0000040,0.0000000,0.0000000,0.0000000,0.0000203,0.0000000,0.0000000,0.0000040,0.0000000,0.0000000,0.0000000,0.0000203,0.0000000,0.0000000,0.0000040
77.0967420,,1.0201299,-0.9674636,-0.2529985,-0.0000549,0.0024268,,,,0.0000000,0.0000000,0.0000000,1.0560272,-4.1295524,-10.7505894,0.0000000,0.0000000,0.0000000,0.1020130,0.0001993,0.0000000,0.0000000,0.0000199,0.0000000,0.0000000,0.0000000,0.0001993,0.0000000,0.0000000,0.0000199,0.0000000,0.0000000,0.0000000,0.0001993,0.0000000,0.0000000,0.0000199,0.0000199,0.0000000,0.0000000,0.0000040,0.0000000,0.0000000,0.0000000,0.0000199,0.0000000,0.0000000,0.0000040,0.0000000,0.0000000,0.0000000,0.0000199,0.0000000,0.0000000,0.0000040
77.1105010,1.0000000,,-0.9674636,-0.2529985,-0.0000533,0.0024220,-0.0003158,0.0022915,0.0006016,,,,1.0560272,-4.1295524,-10.7505894,0.0000000,0.0000000,0.0000000,0.0200000,0.0002000,0.0000000,0.0000000,0.0000200,0.0000000,0.0000000,0.0000000,0.0002000,0.0000000,0.0000000,0.0000200,0.0000000,0.0000000,0.0000000,0.0002000,0.0000000,0.0000000,0.0000200,0.0000200,0.0000000,0.0000000,0.0000040,0.0000000,0.0000000,0.0000000,0.0000200,0.0000000,0.0000000,0.0000040,0.0000000,0.0000000,0.0000000,0.0000200,0.0000000,0.0000000,0.0000040
77.1238340,1.1500500,,-0.9674636,-0.2529985,-0.0000423,0.0024206,-0.0012871,-0.0001818,0.0022539,,,,1.0560272,-4.1295524,-10.7505894,0.0000000,0.0000000,0.0000000,0.0230010,0.0002010,0.0000000,0.0000000,0.0000201,0.0000000,0.0000000,0.0000000,0.0002010,0.0000000,0.0000000,0.0000201,0.0000000,0.0000000,0.0000000,0.0002010,0.0000000,0.0000000,0.0000201,0.0000201,0.0000000,0.0000000,0.0000040,0.0000000,0.0000000,0.0000000,0.0000201,0.0000000,0.0000000,0.0000040,0.0000000,0.0000000,0.0000000,0.0000201,0.0000000,0.0000000,0.0000040
77.1435470,1.0004500,,-0.9674636,-0.2529985,-0.0000332,0.0024324,0.0055515,-0.0004113,0.0043008,,,,1.0560272,-4.1295524,-10.7505894,0.0000000,0.0000000,0.0000000,0.0200090,0.0002018,0.0000000,0.0000000,0.0000202,0.0000000,0.0000000,0.0000000,0.0002018,0.0000000,0.0000000,0.0000202,0.0000000,0.0000000,0.0000000,0.0002018,0.0000000,0.0000000,0.0000202,0.0000202,0.0000000,0.0000000,0.0000040,0.0000000,0.0000000,0.0000000,0.0000202,0.0000000,0.0000000,0.0000040,0.0000000,0.0000000,0.0000000,0.0000202,0.0000000,0.0000000,0.0000040
77.1646520,1.0496000,,-0.9674636,-0.2529985,-0.0000329,0.0024517,0.0026079,0.0002292,-0.0015117,,,,1.0560272,-4.1295524,-10.7505894,0.0000000,0.0000000,0.0000000,0.0209920,0.0002026,0.0000000,0.0000000,0.0000202,0.0000000,0.0000000,0.0000000,0.0002026,0.0000000,0.0000000,0.0000202,0.0000000,0.0000000,0.0000000,0.0002026,0.0000000,0.0000000,0.0000202,0.0000202,0.0000000,0.0000000,0.0000040,0.0000000,0.0000000,0.0000000,0.0000202,0.0000000,0.0000000,0.0000040,0.0000000,0.0000000,0.0000000,0.0000202,0.0000000,0.0000000,0.0000040
77.1882490,,1.0098599,-0.9674636,-0.2529984,-0.0000207,0.0024670,,,,0.0000000,0.0000000,0.0000000,1.0560272,-4.1295524,-10.7505894,0.0000000,0.0000000,0.0000000,0.1009860,0.0001986,0.0000000,0.0000000,0.0000198,0.0000000,0.0000000,0.0000000,0.0001986,0.0000000,0.0000000,0.0000198,0.0000000,0.0000000,0.0000000,0.0001986,0.0000000,0.0000000,0.0000198,0.0000198,0.0000000,0.0000000,0.0000040,0.0000000,0.0000000,0.0000000,0.0000198,0.0000000,0.0000000,0.0000040,0.0000000,0.0000000,0.0000000,0.0000198,0.0000000,0.0000000,0.0000040
77.2016420,1.0998499,,-0.9674636,-0.2529984,-0.0000207,0.0024670,0.0060418,0.0005647,-0.0010000,,,,1.0560272,-4.1295524,-10.7505894,0.0000000,0.0000000,0.0000000,0.0219970,0.0001995,0.0000000,0.0000000,0.0000199,0.0000000,0.0000000,0.0000000,0.0001995,0.0000000,0.0000000,0.0000199,0.0000000,0.0000000,0.0000000,0.0001995,0.0000000,0.0000000,0.0000199,0.0000199,0.0000000,0.0000000,0.0000040,0.0000000,0.0000000,0.0000000,0.0000199,0.0000000,0.0000000,0.0000040,0.0000000,0.0000000,0.0000000,0.0000199,0.0000000,0.0000000,0.0000040
77.2146180,1.3999500,,-0.9674635,-0.2529984,-0.0000124,0.0024987,0.0092160,-0.0023955,0.0048711,,,,1.0560272,-4.1295524,-10.7505894,0.0000000,0.0000000,0.0000000,0.0279990,0.0002006,0.0000000,0.0000000,0.0000200,0.0000000,0.0000000,0.0000000,0.0002006,0.0000000,0.0000000,0.0000200,0.0000000,0.0000000,0.0000000,0.0002006,0.0000000,0.0000000,0.0000200,0.0000200,0.0000000,0.0000000,0.0000040,0.0000000,0.0000000,0.0000000,0.0000200,0.0000000,0.0000000,0.0000040,0.0000000,0.0000000,0.0000000,0.0000200,0.0000000,0.0000000,0.0000040
77.2357610,1.0501001,,-0.9674634,-0.2529984,-0.0000200,0.0025213,0.0002821,0.0012589,0.0065859,,,,1.0560272,-4.1295524,-10.7505894,0.0000000,0.0000000,0.0000000,0.0210020,0.0002014,0.0000000,0.0000000,0.0000201,0.0000000,0.0000000,0.0000000,0.0002014,0.0000000,0.0000000,0.0000201,0.0000000,0.0000000,0.0000000,0.0002014,0.0000000,0.0000000,0.0000201,0.0000201,0.0000000,0.0000000,0.0000040,0.0000000,0.0000000,0.0000000,0.0000201,0.0000000,0.0000000,0.0000040,0.0000000,0.0000000,0.0000000,0.0000201,0.0000000,0.0000000,0.0000040
77.2555860,1.0006001,,-0.9674634,-0.2529984,-0.0000253,0.0025199,0.0026511,0.0057488,0.0062227,,,,1.0560272,-4.1295524,-10.7505894,0.0000000,0.0000000,0.0000000,0.0200120,0.0002022,0.0000000,0.0000000,0.0000202,0.0000000,0.0000000,0.0000000,0.0002022,0.0000000,0.0000000,0.0000202,0.0000000,0.0000000,0.0000000,0.0002022,0.0000000,0.0000000,0.0000202,0.0000202,0.0000000,0.0000000,0.0000040,0.0000000,0.0000000,0.0000000,0.0000202,0.0000000,0.0000000,0.0000040,0.0000000,0.0000000,0.0000000,0.0000202,0.0000000,0.0000000,0.0000040
77.2769190,1.0494500,,-0.9674634,-0.2529984,-0.0000163,0.0025119,-0.0054112,0.0070095,0.0011582,,,,1.0560272,-4.1295524,-10.7505894,0.0000000,0.0000000,0.0000000,0.0209890,0.0002031,0.0000000,0.0000000,0.0000203,0.0000000,0.0000000,0.0000000,0.0002031,0.0000000,0.0000000,0.0000203,0.0000000,0.0000000,0.0000000,0.0002031,0.0000000,0.0000000,0.0000203,0.0000203,0.0000000,0.0000000,0.0000040,0.0000000,0.0000000,0.0000000,0.0000203,0.0000000,0.0000000,0.0000040,0.0000000,0.0000000,0.0000000,0.0000203,0.0000000,0.0000000,0.0000040
77.2941410,,1.0200100,-0.9674634,-0.2529984,-0.0000163,0.0025119,,,,0.0000000,0.0000000,0.0000000,1.0560272,-4.1295524,-10.7505894,0.0000000,0.0000000,0.0000000,0.1020010,0.0001990,0.0000000,0.0000000,0.0000199,0.0000000,0.0000000,0.0000000,0.0001990,0.0000000,0.0000000,0.0000199,0.0000000,0.0000000,0.0000000,0.0001990,0.0000000,0.0000000,0.0000199,0.0000199,0.0000000,0.0000000,0.0000040,0.0000000,0.0000000,0.0000000,0.0000199,0.0000000,0.0000000,0.0000040,0.0000000,0.0000000,0.0000000,0.0000199,0.0000000,0.0000000,0.0000040
77.3078180,1.1003500,,-0.9674634,-0.2529984,-0.0000156,0.0025177,-0.0021334,-0.0021105,-0.0016182,,,,1.0560272,-4.1295524,-10.7505894,0.0000000,0.0000000,0.0000000,0.0220070,0.0001999,0.0000000,0.0000000,0.0000200,0.0000000,0.0000000,0.0000000,0.0001999,0.0000000,0.0000000,0.0000200,0.0000000,0.0000000,0.0000000,0.0001999,0.0000000,0.0000000,0.0000200,0.0000200,0.0000000,0.0000000,0.0000040,0.0000000,0.0000000,0.0000000,0.0000200,0.0000000,0.0000000,0.0000040,0.0000000,0.0000000,0.0000000,0.0000200,0.0000000,0.0000000,0.0000040
77.3204290,1.0995500,,-0.9674634,-0.2529984,0.0000183,0.0025063,0.0000625,0.0016227,0.0006558,,,,1.0560272,-4.1295524,-10.7505894,0.0000000,0.0000000,0.0000000,0.0219910,0.0002008,0.0000000,0.0000000,0.0000201,0.0000000,0.0000000,0.0000000,0.0002008,0.0000000,0.0000000,0.0000201,0.0000000,0.0000000,0.0000000,0.0002008,0.0000000,0.0000000,0.0000201,0.0000201,0.0000000,0.0000000,0.0000040,0.0000000,0.0000000,0.0000000,0.0000201,0.0000000,0.0000000,0.0000040,0.0000000,0.0000000,0.0000000,0.0000201,0.0000000,0.0000000,0.0000040
77.3417440,1.0504500,,-0.9674634,-0.2529984,0.0000109,0.0025134,0.0055015,0.0027645,0.0039900,,,,1.0560272,-4.1295524,-10.7505894,0.0000000,0.0000000,0.0000000,0.0210090,0.0002016,0.0000000,0.0000000,0.0000201,0.0000000,0.0000000,0.0000000,0.0002016,0.0000000,0.0000000,0.0000201,0.0000000,0.0000000,0.0000000,0.0002016,0.0000000,0.0000000,0.0000201,0.0000201,0.0000000,0.0000000,0.0000040,0.0000000,0.0000000,0.0000000,0.0000201,0.0000000,0.0000000,0.0000040,0.0000000,0.0000000,0.0000000,0.0000201,0.0000000,0.0000000,0.0000040
77.3640890,1.0496000,,-0.9674634,-0.2529984,0.0000092,0.0025180,0.0026134,0.0023664,0.0046805,,,,1.0560272,-4.1295524,-10.7505894,0.0000000,0.0000000,0.0000000,0.0209920,0.0002025,0.0000000,0.0000000,0.0000202,0.0000000,0.0000000,0.0000000,0.0002025,0.0000000,0.0000000,0.0000202,0.0000000,0.0000000,0.0000000,0.0002025,0.0000000,0.0000000,0.0000202,0.0000202,0.0000000,0.0000000,0.0000040,0.0000000,0.0000000,0.0000000,0.0000202,0.0000000,0.0000000,0.0000040,0.0000000,0.0000000,0.0000000,0.0000202,0.0000000,0.0000000,0.0000040
77.3827180,0.9999500,,-0.9674634,-0.2529984,-0.0000051,0.0025186,-0.0012949,0.0021521,0.0008754,,,,1.0560272,-4.1295524,-10.7505894,0.0000000,0.0000000,0.0000000,0.0199990,0.0002033,0.0000000,0.0000000,0.0000203,0.0000000,0.0000000,0.0000000,0.0002033,0.0000000,0.0000000,0.0000203,0.0000000,0.0000000,0.0000000,0.0002033,0.0000000,0.0000000,0.0000203,0.0000203,0.0000000,0.0000000,0.0000040,0.0000000,0.0000000,0.0000000,0.0000203,0.0000000,0.0000000,0.0000040,0.0000000,0.0000000,0.0000000,0.0000203,0.0000000,0.0000000,0.0000040
77.3986940,,1.0200399,-0.9674634,-0.2529984,-0.0000051,0.0025186,,,,0.0000000,0.0000000,0.0000000,1.0560272,-4.1295524,-10.7505894,0.0000000,0.0000000,0.0000000,0.1020040,0.0001992,0.0000000,0.0000000,0.0000199,0.0000000,0.0000000,0.0000000,0.0001992,0.0000000,0.0000000,0.0000199,0.0000000,0.0000000,0.0000000,0.0001992,0.0000000,0.0000000,0.0000199,0.0000199,0.0000000,0.0000000,0.0000040,0.0000000,0.0000000,0.0000000,0.0000199,0.0000000,0.0000000,0.0000040,0.0000000,0.0000000,0.0000000,0.0000199,0.0000000,0.0000000,0.0000040
77.4124790,1.0000000,,-0.9674634,-0.2529984,-0.0000126,0.0025109,0.0035869,0.0008090,-0.0039568,,,,1.0560272,-4.1295524,-10.7505894,0.0000000,0.0000000,0.0000000,0.0200000,0.0002000,0.0000000,0.0000000,0.0000200,0.0000000,0.0000000,0.0000000,0.0002000,0.0000000,0.0000000,0.0000200,0.0000000,0.0000000,0.0000000,0.0002000,0.0000000,0.0000000,0.0000200,0.0000200,0.0000000,0.0000000,0.0000040,0.0000000,0.0000000,0.0000000,0.0000200,0.0000000,0.0000000,0.0000040,0.0000000,0.0000000,0.0000000,0.0000200,0.0000000,0.0000000,0.0000040
77.4255330,1.1499500,,-0.9674634,-0.2529984,0.0000031,0.0025185,0.0006872,-0.0027617,-0.0046640,,,,1.0560272,-4.1295524,-10.7505894,0.0000000,0.0000000,0.0000000,0.0229990,0.0002010,0.0000000,0.0000000,0.0000201,0.0000000,0.0000000,0.0000000,0.0002010,0.0000000,0.0000000,0.0000201,0.0000000,0.0000000,0.0000000,0.0002010,0.0000000,0.0000000,0.0000201,0.0000201,0.0000000,0.0000000,0.0000040,0.0000000,0.0000000,0.0000000,0.0000201,0.0000000,0.0000000,0.0000040,0.0000000,0.0000000,0.0000000,0.0000201,0.0000000,0.0000000,0.0000040
77.4480550,1.0500000,,-0.9674634,-0.2529984,0.0000061,0.0025235,0.0011828,0.0005799,-0.0006230,,,,1.0560272,-4.1295524,-10.7505894,0.0000000,0.0000000,0.0000000,0.0210000,0.0002018,0.0000000,0.0000000,0.0000202,0.0000000,0.0000000,0.0000000,0.0002018,0.0000000,0.0000000,0.0000202,0.0000000,0.0000000,0.0000000,0.0002018,0.0000000,0.0000000,0.0000202,0.0000202,0.0000000,0.0000000,0.0000040,0.0000000,0.0000000,0.0000000,0.0000202,0.0000000,0.0000000,0.0000040,0.0000000,0.0000000,0.0000000,0.0000202,0.0000000,0.0000000,0.0000040
77.4666260,1.0000501,,-0.9674634,-0.2529984,0.0000178,0.0025297,-0.0019721,-0.0062790,-0.0012881,,,,1.0560272,-4.1295524,-10.7505894,0.0000000,0.0000000,0.0000000,0.0200010,0.0002026,0.0000000,0.0000000,0.0000202,0.0000000,0.0000000,0.0000000,0.0002026,0.0000000,0.0000000,0.0000202,0.0000000,0.0000000,0.0000000,0.0002026,0.0000000,0.0000000,0.0000202,0.0000202,0.0000000,0.0000000,0.0000040,0.0000000,0.0000000,0.0000000,0.0000202,0.0000000,0.0000000,0.0000040,0.0000000,0.0000000,0.0000000,0.0000202,0.0000000,0.0000000,0.0000040
77.4868240,1.0000000,,-0.9674634,-0.2529983,0.0000223,0.0025436,0.0042554,-0.0113945,-0.0084565,,,,1.0560272,-4.1295524,-10.7505894,0.0000000,0.0000000,0.0000000,0.0200000,0.0002034,0.0000000,0.0000000,0.0000203,0.0000000,0.0000000,0.0000000,0.0002034,0.0000000,0.0000000,0.0000203,0.0000000,0.0000000,0.0000000,0.0002034,0.0000000,0.0000000,0.0000203,0.0000203,0.0000000,0.0000000,0.0000040,0.0000000,0.0000000,0.0000000,0.0000203,0.0000000,0.0000000,0.0000040,0.0000000,0.0000000,0.0000000,0.0000203,0.0000000,0.0000000,0.0000040
77.5028940,,0.9999500,-0.9674634,-0.2529983,0.0000223,0.0025519,,,,0.0000000,0.0000000,0.0000000,1.0560272,-4.1295524,-10.7505894,0.0000000,0.0000000,0.0000000,0.0999950,0.0001994,0.0000000,0.0000000,0.0000199,0.0000000,0.0000000,0.0000000,0.0001994,0.0000000,0.0000000,0.0000199,0.0000000,0.0000000,0.0000000,0.0001994,0.0000000,0.0000000,0.0000199,0.0000199,0.0000000,0.0000000,0.0000040,0.0000000,0.0000000,0.0000000,0.0000199,0.0000000,0.0000000,0.0000040,0.0000000,0.0000000,0.0000000,0.0000199,0.0000000,0.0000000,0.0000040
77.5165770,1.0001000,,-0.9674634,-0.2529984,-0.0000043,0.0025519,0.0036536,-0.0027370,-0.0022751,,,,1.0560272,-4.1295524,-10.7505894,0.0000000,0.0000000,0.0000000,0.0200020,0.0002002,0.0000000,0.0000000,0.0000200,0.0000000,0.0000000,0.0000000,0.0002002,0.0000000,0.0000000,0.0000200,0.0000000,0.0000000,0.0000000,0.0002002,0.0000000,0.0000000,0.0000200,0.0000200,0.0000000,0.0000000,0.0000040,0.0000000,0.0000000,0.0000000,0.0000200,0.0000000,0.0000000,0.0000040,0.0000000,0.0000000,0.0000000,0.0000200,0.0000000,0.0000000,0.0000040
77.5296560,1.1498500,,-0.9674633,-0.2529984,-0.0000130,0.0025684,0.0045734,0.0025988,0.0000831,,,,1.0560272,-4.1295524,-10.7505894,0.0000000,0.0000000,0.0000000,0.0229970,0.0002011,0.0000000,0.0000000,0.0000201,0.0000000,0.0000000,0.0000000,0.0002011,0.0000000,0.0000000,0.0000201,0.0000000,0.0000000,0.0000000,0.0002011,0.0000000,0.0000000,0.0000201,0.0000201,0.0000000,0.0000000,0.0000040,0.0000000,0.0000000,0.0000000,0.0000201,0.0000000,0.0000000,0.0000040,0.0000000,0.0000000,0.0000000,0.0000201,0.0000000,0.0000000,0.0000040
77.5508040,1.0500500,,-0.9674633,-0.2529984,-0.0000162,0.0025738,-0.0030157,-0.0008445,0.0044361,,,,1.0560272,-4.1295524,-10.7505894,0.0000000,0.0000000,0.0000000,0.0210010,0.0002019,0.0000000,0.0000000,0.0000202,0.0000000,0.0000000,0.0000000,0.0002019,0.0000000,0.0000000,0.0000202,0.0000000,0.0000000,0.0000000,0.0002019,0.0000000,0.0000000,0.0000202,0.0000202,0.0000000,0.0000000,0.0000040,0.0000000,0.0000000,0.0000000,0.0000202,0.0000000,0.0000000,0.0000040,0.0000000,0.0000000,0.0000000,0.0000202,0.0000000,0.0000000,0.0000040
77.5705860,1.0005500,,-0.9674633,-0.2529984,-0.0000167,0.0025696,-0.0029041,0.0047429,-0.0007116,,,,1.0560272,-4.1295524,-10.7505894,0.0000000,0.0000000,0.0000000,0.0200110,0.0002027,0.0000000,0.0000000,0.0000202,0.0000000,0.0000000,0.0000000,0.0002027,0.0000000,0.0000000,0.0000202,0.0000000,0.0000000,0.0000000,0.0002027,0.0000000,0.0000000,0.0000202,0.0000202,0.0000000,0.0000000,0.0000040,0.0000000,0.0000000,0.0000000,0.0000202,0.0000000,0.0000000,0.0000040,0.0000000,0.0000000,0.0000000,0.0000202,0.0000000,0.0000000,0.0000040
77.5908890,,1.0000401,-0.9674633,-0.2529984,-0.0000186,0.0025804,,,,0.0000000,0.0000000,0.0000000,1.0560272,-4.1295524,-10.7505894,0.0000000,0.0000000,0.0000000,0.1000040,0.0001987,0.0000000,0.0000000,0.0000198,0.0000000,0.0000000,0.0000000,0.0001987,0.0000000,0.0000000,0.0000198,0.0000000,0.0000000,0.0000000,0.0001987,0.0000000,0.0000000,0.0000198,0.0000198,0.0000000,0.0000000,0.0000040,0.0000000,0.0000000,0.0000000,0.0000198,0.0000000,0.0000000,0.0000040,0.0000000,0.0000000,0.0000000,0.0000198,0.0000000,0.0000000,0.0000040
77.6047520,1.0994500,,-0.9674633,-0.2529984,-0.0000186,0.0025804,-0.0011469,0.0004793,-0.0008441,,,,1.0560272,-4.1295524,-10.7505894,0.0000000,0.0000000,0.0000000,0.0219890,0.0001996,0.0000000,0.0000000,0.0000199,0.0000000,0.0000000,0.0000000,0.0001996,0.0000000,0.0000000,0.0000199,0.0000000,0.0000000,0.0000000,0.0001996,0.0000000,0.0000000,0.0000199,0.0000199,0.0000000,0.0000000,0.0000040,0.0000000,0.0000000,0.0000000,0.0000199,0.0000000,0.0000000,0.0000040,0.0000000,0.0000000,0.0000000,0.0000199,0.0000000,0.0000000,0.0000040
77.6176040,1.2499000,,-0.9674633,-0.2529984,-0.0000187,0.0025912,0.0051028,-0.0016372,0.0112967,,,,1.0560272,-4.1295524,-10.7505894,0.0000000,0.0000000,0.0000000,0.0249980,0.0002006,0.0000000,0.0000000,0.0000200,0.0000000,0.0000000,0.0000000,0.0002006,0.0000000,0.0000000,0.0000200,0.0000000,0.0000000,0.0000000,0.0002006,0.0000000,0.0000000,0.0000200,0.0000200,0.0000000,0.0000000,0.0000040,0.0000000,0.0000000,0.0000000,0.0000200,0.0000000,0.0000000,0.0000040,0.0000000,0.0000000,0.0000000,0.0000200,0.0000000,0.0000000,0.0000040
77.6388600,1.0502501,,-0.9674633,-0.2529984,0.0000006,0.0026016,-0.0017516,-0.0014594,0.0134609,,,,1.0560272,-4.1295524,-10.7505894,0.0000000,0.0000000,0.0000000,0.0210050,0.0002014,0.0000000,0.0000000,0.0000201,0.0000000,0.0000000,0.0000000,0.0002014,0.0000000,0.0000000,0.0000201,0.0000000,0.0000000,0.0000000,0.0002014,0.0000000,0.0000000,0.0000201,0.0000201,0.0000000,0.0000000,0.0000040,0.0000000,0.0000000,0.0000000,0.0000201,0.0000000,0.0000000,0.0000040,0.0000000,0.0000000,0.0000000,0.0000201,0.0000000,0.0000000,0.0000040
77.6586500,1.0000501,,-0.9674633,-0.2529983,0.0000146,0.0025967,-0.0032104,-0.0030948,0.0057539,,,,1.0560272,-4.1295524,-10.7505894,0.0000000,0.0000000,0.0000000,0.0200010,0.0002022,0.0000000,0.0000000,0.0000202,0.0000000,0.0000000,0.0000000,0.0002022,0.0000000,0.0000000,0.0000202,0.0000000,0.0000000,0.0000000,0.0002022,0.0000000,0.0000000,0.0000202,0.0000202,0.0000000,0.0000000,0.0000040,0.0000000,0.0000000,0.0000000,0.0000202,0.0000000,0.0000000,0.0000040,0.0000000,0.0000000,0.0000000,0.0000202,0.0000000,0.0000000,0.0000040
77.6789140,1.0001501,,-0.9674633,-0.2529984,0.0000158,0.0025724,-0.0000335,0.0031218,0.0055625,,,,1.0560272,-4.1295524,-10.7505894,0.0000000,0.0000000,0.0000000,0.0200030,0.0002030,0.0000000,0.0000000,0.0000203,0.0000000,0.0000000,0.0000000,0.0002030,0.0000000,0.0000000,0.0000203,0.0000000,0.0000000,0.0000000,0.0002030,0.0000000,0.0000000,0.0000203,0.0000203,0.0000000,0.0000000,0.0000040,0.0000000,0.0000000,0.0000000,0.0000203,0.0000000,0.0000000,0.0000040,0.0000000,0.0000000,0.0000000,0.0000203,0.0000000,0.0000000,0.0000040
77.6947770,,0.9999900,-0.9674633,-0.2529984,0.0000158,0.0025653,,,,0.0000000,0.0000000,0.0000000,1.0560272,-4.1295524,-10.7505894,0.0000000,0.0000000,0.0000000,0.0999990,0.0001990,0.0000000,0.0000000,0.0000199,0.0000000,0.0000000,0.0000000,0.0001990,0.0000000,0.0000000,0.0000199,0.0000000,0.0000000,0.0000000,0.0001990,0.0000000,0.0000000,0.0000199,0.0000199,0.0000000,0.0000000,0.0000040,0.0000000,0.0000000,0.0000000,0.0000199,0.0000000,0.0000000,0.0000040,0.0000000,0.0000000,0.0000000,0.0000199,0.0000000,0.0000000,0.0000040
77.7086670,0.9998500,,-0.9674633,-0.2529984,-0.0000002,0.0025653,0.0027451,0.0045211,0.0054668,,,,1.0560272,-4.1295524,-10.7505894,0.0000000,0.0000000,0.0000000,0.0199970,0.0001998,0.0000000,0.0000000,0.0000200,0.0000000,0.0000000,0.0000000,0.0001998,0.0000000,0.0000000,0.0000200,0.0000000,0.0000000,0.0000000,0.0001998,0.0000000,0.0000000,0.0000200,0.0000200,0.0000000,0.0000000,0.0000040,0.0000000,0.0000000,0.0000000,0.0000200,0.0000000,0.0000000,0.0000040,0.0000000,0.0000000,0.0000000,0.0000200,0.0000000,0.0000000,0.0000040
77.7216010,1.1497999,,-0.9674633,-0.2529984,-0.0000072,0.0025660,0.0019371,0.0001091,0.0010244,,,,1.0560272,-4.1295524,-10.7505894,0.0000000,0.0000000,0.0000000,0.0229960,0.0002007,0.0000000,0.0000000,0.0000200,0.0000000,0.0000000,0.0000000,0.0002007,0.0000000,0.0000000,0.0000200,0.0000000,0.0000000,0.0000000,0.0002007,0.0000000,0.0000000,0.0000200,0.0000200,0.0000000,0.0000000,0.0000040,0.0000000,0.0000000,0.0000000,0.0000200,0.0000000,0.0000000,0.0000040,0.0000000,0.0000000,0.0000000,0.0000200,0.0000000,0.0000000,0.0000040
77.7427780,1.0504000,,-0.9674634,-0.2529984,-0.0000150,0.0025450,0.0039745,0.0049373,0.0012446,,,,1.0560272,-4.1295524,-10.7505894,0.0000000,0.0000000,0.0000000,0.0210080,0.0002015,0.0000000,0.0000000,0.0000201,0.0000000,0.0000000,0.0000000,0.0002015,0.0000000,0.0000000,0.0000201,0.0000000,0.0000000,0.0000000,0.0002015,0.0000000,0.0000000,0.0000201,0.0000201,0.0000000,0.0000000,0.0000040,0.0000000,0.0000000,0.0000000,0.0000201,0.0000000,0.0000000,0.0000040,0.0000000,0.0000000,0.0000000,0.0000201,0.0000000,0.0000000,0.0000040
77.7627790,0.9996500,,-0.9674634,-0.2529985,-0.0000203,0.0025200,0.0045126,0.0034147,-0.0013308,,,,1.0560272,-4.1295524,-10.7505894,0.0000000,0.0000000,0.0000000,0.0199930,0.0002023,0.0000000,0.0000000,0.0000202,0.0000000,0.0000000,0.0000000,0.0002023,0.0000000,0.0000000,0.0000202,0.0000000,0.0000000,0.0000000,0.0002023,0.0000000,0.0000000,0.0000202,0.0000202,0.0000000,0.0000000,0.0000040,0.0000000,0.0000000,0.0000000,0.0000202,0.0000000,0.0000000,0.0000040,0.0000000,0.0000000,0.0000000,0.0000202,0.0000000,0.0000000,0.0000040
77.7829330,1.0003500,,-0.9674635,-0.2529985,-0.0000311,0.0024883,-0.0013295,0.0021270,-0.0060365,,,,1.0560272,-4.1295524,-10.7505894,0.0000000,0.0000000,0.0000000,0.0200070,0.0002031,0.0000000,0.0000000,0.0000203,0.0000000,0.0000000,0.0000000,0.0002031,0.0000000,0.0000000,0.0000203,0.0000000,0.0000000,0.0000000,0.0002031,0.0000000,0.0000000,0.0000203,0.0000203,0.0000000,0.0000000,0.0000040,0.0000000,0.0000000,0.0000000,0.0000203,0.0000000,0.0000000,0.0000040,0.0000000,0.0000000,0.0000000,0.0000203,0.0000000,0.0000000,0.0000040
77.7984790,,1.0200300,-0.9674635,-0.2529985,-0.0000311,0.0024792,,,,0.0000000,0.0000000,0.0000000,1.0560272,-4.1295524,-10.7505894,0.0000000,0.0000000,0.0000000,0.1020030,0.0001991,0.0000000,0.0000000,0.0000199,0.0000000,0.0000000,0.0000000,0.0001991,0.0000000,0.0000000,0.0000199,0.0000000,0.0000000,0.0000000,0.0001991,0.0000000,0.0000000,0.0000199,0.0000199,0.0000000,0.0000000,0.0000040,0.0000000,0.0000000,0.0000000,0.0000199,0.0000000,0.0000000,0.0000040,0.0000000,0.0000000,0.0000000,0.0000199,0.0000000,0.0000000,0.0000040
77.8121790,0.9997000,,-0.9674635,-0.2529986,-0.0000459,0.0024792,0.0032949,-0.0043686,-0.0005768,,,,1.0560272,-4.1295524,-10.7505894,0.0000000,0.0000000,0.0000000,0.0199940,0.0001999,0.0000000,0.0000000,0.0000200,0.0000000,0.0000000,0.0000000,0.0001999,0.0000000,0.0000000,0.0000200,0.0000000,0.0000000,0.0000000,0.0001999,0.0000000,0.0000000,0.0000200,0.0000200,0.0000000,0.0000000,0.0000040,0.0000000,0.0000000,0.0000000,0.0000200,0.0000000,0.0000000,0.0000040,0.0000000,0.0000000,0.0000000,0.0000200,0.0000000,0.0000000,0.0000040
77.8254810,1.1498500,,-0.9674634,-0.2529986,-0.0000464,0.0024961,-0.0004964,-0.0051293,-0.0010208,,,,1.0560272,-4.1295524,-10.7505894,0.0000000,0.0000000,0.0000000,0.0229970,0.0002008,0.0000000,0.0000000,0.0000201,0.0000000,0.0000000,0.0000000,0.0002008,0.0000000,0.0000000,0.0000201,0.0000000,0.0000000,0.0000000,0.0002008,0.0000000,0.0000000,0.0000201,0.0000201,0.0000000,0.0000000,0.0000040,0.0000000,0.0000000,0.0000000,0.0000201,0.0000000,0.0000000,0.0000040,0.0000000,0.0000000,0.0000000,0.0000201,0.0000000,0.0000000,0.0000040
77.8467410,1.0501500,,-0.9674634,-0.2529987,-0.0000700,0.0024966,-0.0016978,0.0039814,-0.0007546,,,,1.0560272,-4.1295524,-10.7505894,0.0000000,0.0000000,0.0000000,0.0210030,0.0002017,0.0000000,0.0000000,0.0000201,0.0000000,0.0000000,0.0000000,0.0002017,0.0000000,0.0000000,0.0000201,0.0000000,0.0000000,0.0000000,0.0002017,0.0000000,0.0000000,0.0000201,0.0000201,0.0000000,0.0000000,0.0000040,0.0000000,0.0000000,0.0000000,0.0000201,0.0000000,0.0000000,0.0000040,0.0000000,0.0000000,0.0000000,0.0000201,0.0000000,0.0000000,0.0000040
77.8677600,1.0498999,,-0.9674634,-0.2529987,-0.0000977,0.0025015,-0.0016042,0.0002359,-0.0023304,,,,1.0560272,-4.1295524,-10.7505894,0.0000000,0.0000000,0.0000000,0.0209980,0.0002025,0.0000000,0.0000000,0.0000202,0.0000000,0.0000000,0.0000000,0.0002025,0.0000000,0.0000000,0.0000202,0.0000000,0.0000000,0.0000000,0.0002025,0.0000000,0.0000000,0.0000202,0.0000202,0.0000000,0.0000000,0.0000040,0.0000000,0.0000000,0.0000000,0.0000202,0.0000000,0.0000000,0.0000040,0.0000000,0.0000000,0.0000000,0.0000202,0.0000000,0.0000000,0.0000040
77.8889240,1.0501001,,-0.9674634,-0.2529987,-0.0001183,0.0025112,-0.0018168,-0.0040629,-0.0055597,,,,1.0560272,-4.1295524,-10.7505894,0.0000000,0.0000000,0.0000000,0.0210020,0.0002034,0.0000000,0.0000000,0.0000203,0.0000000,0.0000000,0.0000000,0.0002034,0.0000000,0.0000000,0.0000203,0.0000000,0.0000000,0.0000000,0.0002034,0.0000000,0.0000000,0.0000203,0.0000203,0.0000000,0.0000000,0.0000040,0.0000000,0.0000000,0.0000000,0.0000203,0.0000000,0.0000000,0.0000040,0.0000000,0.0000000,0.0000000,0.0000203,0.0000000,0.0000000,0.0000040
77.9048160,,0.9999400,-0.9674634,-0.2529987,-0.0001183,0.0025329,,,,0.0000000,0.0000000,0.0000000,1.0560272,-4.1295524,-10.7505894,0.0000000,0.0000000,0.0000000,0.0999940,0.0001993,0.0000000,0.0000000,0.0000199,0.0000000,0.0000000,0.0000000,0.0001993,0.0000000,0.0000000,0.0000199,0.0000000,0.0000000,0.0000000,0.0001993,0.0000000,0.0000000,0.0000199,0.0000199,0.0000000,0.0000000,0.0000040,0.0000000,0.0000000,0.0000000,0.0000199,0.0000000,0.0000000,0.0000040,0.0000000,0.0000000,0.0000000,0.0000199,0.0000000,0.0000000,0.0000040
77.9187290,1.0002999,,-0.9674633,-0.2529987,-0.0001055,0.0025329,-0.0009084,-0.0054418,-0.0027799,,,,1.0560272,-4.1295524,-10.7505894,0.0000000,0.0000000,0.0000000,0.0200060,0.0002001,0.0000000,0.0000000,0.0000200,0.0000000,0.0000000,0.0000000,0.0002001,0.0000000,0.0000000,0.0000200,0.0000000,0.0000000,0.0000000,0.0002001,0.0000000,0.0000000,0.0000200,0.0000200,0.0000000,0.0000000,0.0000040,0.0000000,0.0000000,0.0000000,0.0000200,0.0000000,0.0000000,0.0000040,0.0000000,0.0000000,0.0000000,0.0000200,0.0000000,0.0000000,0.0000040
77.9316180,1.1495500,,-0.9674633,-0.2529987,-0.0001099,0.0025436,0.0012319,-0.0032016,0.0066667,,,,1.0560272,-4.1295524,-10.7505894,0.0000000,0.0000000,0.0000000,0.0229910,0.0002010,0.0000000,0.0000000,0.0000201,0.0000000,0.0000000,0.0000000,0.0002010,0.0000000,0.0000000,0.0000201,0.0000000,0.0000000,0.0000000,0.0002010,0.0000000,0.0000000,0.0000201,0.0000201,0.0000000,0.0000000,0.0000040,0.0000000,0.0000000,0.0000000,0.0000201,0.0000000,0.0000000,0.0000040,0.0000000,0.0000000,0.0000000,0.0000201,0.0000000,0.0000000,0.0000040
77.9527580,1.0504000,,-0.9674633,-0.2529987,-0.0000883,0.0025455,-0.0032598,0.0028014,0.0074837,,,,1.0560272,-4.1295524,-10.7505894,0.0000000,0.0000000,0.0000000,0.0210080,0.0002019,0.0000000,0.0000000,0.0000202,0.0000000,0.0000000,0.0000000,0.0002019,0.0000000,0.0000000,0.0000202,0.0000000,0.0000000,0.0000000,0.0002019,0.0000000,0.0000000,0.0000202,0.0000202,0.0000000,0.0000000,0.0000040,0.0000000,0.0000000,0.0000000,0.0000202,0.0000000,0.0000000,0.0000040,0.0000000,0.0000000,0.0000000,0.0000202,0.0000000,0.0000000,0.0000040
77.9727420,0.9997000,,-0.9674633,-0.2529986,-0.0000846,0.0025583,0.0037488,0.0041168,0.0076481,,,,1.0560272,-4.1295524,-10.7505894,0.0000000,0.0000000,0.0000000,0.0199940,0.0002027,0.0000000,0.0000000,0.0000202,0.0000000,0.0000000,0.0000000,0.0002027,0.0000000,0.0000000,0.0000202,0.0000000,0.0000000,0.0000000,0.0002027,0.0000000,0.0000000,0.0000202,0.0000202,0.0000000,0.0000000,0.0000040,0.0000000,0.0000000,0.0000000,0.0000202,0.0000000,0.0000000,0.0000040,0.0000000,0.0000000,0.0000000,0.0000202,0.0000000,0.0000000,0.0000040
77.9941990,,0.9999900,-0.9674633,-0.2529986,-0.0000697,0.0025678,,,,0.0000000,0.0000000,0.0000000,1.0560272,-4.1295524,-10.7505894,0.0000000,0.0000000,0.0000000,0.0999990,0.0001986,0.0000000,0.0000000,0.0000198,0.0000000,0.0000000,0.0000000,0.0001986,0.0000000,0.0000000,0.0000198,0.0000000,0.0000000,0.0000000,0.0001986,0.0000000,0.0000000,0.0000198,0.0000198,0.0000000,0.0000000,0.0000040,0.0000000,0.0000000,0.0000000,0.0000198,0.0000000,0.0000000,0.0000040,0.0000000,0.0000000,0.0000000,0.0000198,0.0000000,0.0000000,0.0000040
78.0074980,0.9999000,,-0.9674633,-0.2529986,-0.0000697,0.0025678,0.0038581,-0.0003449,0.0082186,,,,1.0560272,-4.1295524,-10.7505894,0.0000000,0.0000000,0.0000000,0.0199980,0.0001994,0.0000000,0.0000000,0.0000199,0.0000000,0.0000000,0.0000000,0.0001994,0.0000000,0.0000000,0.0000199,0.0000000,0.0000000,0.0000000,0.0001994,0.0000000,0.0000000,0.0000199,0.0000199,0.0000000,0.0000000,0.0000040,0.0000000,0.0000000,0.0000000,0.0000199,0.0000000,0.0000000,0.0000040,0.0000000,0.0000000,0.0000000,0.0000199,0.0000000,0.0000000,0.0000040
78.0208940,1.3999500,,-0.9674633,-0.2529986,-0.0000602,0.0025539,-0.0014432,0.0020325,-0.0024825,,,,1.0560272,-4.1295524,-10.7505894,0.0000000,0.0000000,0.0000000,0.0279990,0.0002005,0.0000000,0.0000000,0.0000200,0.0000000,0.0000000,0.0000000,0.0002005,0.0000000,0.0000000,0.0000200,0.0000000,0.0000000,0.0000000,0.0002005,0.0000000,0.0000000,0.0000200,0.0000200,0.0000000,0.0000000,0.0000040,0.0000000,0.0000000,0.0000000,0.0000200,0.0000000,0.0000000,0.0000040,0.0000000,0.0000000,0.0000000,0.0000200,0.0000000,0.0000000,0.0000040
78.0421940,1.0001501,,-0.9674633,-0.2529987,-0.0000813,0.0025497,0.0068391,-0.0033783,0.0019326,,,,1.0560272,-4.1295524,-10.7505894,0.0000000,0.0000000,0.0000000,0.0200030,0.0002014,0.0000000,0.0000000,0.0000201,0.0000000,0.0000000,0.0000000,0.0002014,0.0000000,0.0000000,0.0000201,0.0000000,0.0000000,0.0000000,0.0002014,0.0000000,0.0000000,0.0000201,0.0000201,0.0000000,0.0000000,0.0000040,0.0000000,0.0000000,0.0000000,0.0000201,0.0000000,0.0000000,0.0000040,0.0000000,0.0000000,0.0000000,0.0000201,0.0000000,0.0000000,0.0000040
78.0609080,1.0002999,,-0.9674633,-0.2529986,-0.0000804,0.0025655,-0.0004790,-0.0048248,-0.0048931,,,,1.0560272,-4.1295524,-10.7505894,0.0000000,0.0000000,0.0000000,0.0200060,0.0002022,0.0000000,0.0000000,0.0000202,0.0000000,0.0000000,0.0000000,0.0002022,0.0000000,0.0000000,0.0000202,0.0000000,0.0000000,0.0000000,0.0002022,0.0000000,0.0000000,0.0000202,0.0000202,0.0000000,0.0000000,0.0000040,0.0000000,0.0000000,0.0000000,0.0000202,0.0000000,0.0000000,0.0000040,0.0000000,0.0000000,0.0000000,0.0000202,0.0000000,0.0000000,0.0000040
78.0817100,1.0497501,,-0.9674633,-0.2529987,-0.0000961,0.0025582,-0.0026962,-0.0019241,0.0012156,,,,1.0560272,-4.1295524,-10.7505894,0.0000000,0.0000000,0.0000000,0.0209950,0.0002030,0.0000000,0.0000000,0.0000203,0.0000000,0.0000000,0.0000000,0.0002030,0.0000000,0.0000000,0.0000203,0.0000000,0.0000000,0.0000000,0.0002030,0.0000000,0.0000000,0.0000203,0.0000203,0.0000000,0.0000000,0.0000040,0.0000000,0.0000000,0.0000000,0.0000203,0.0000000,0.0000000,0.0000040,0.0000000,0.0000000,0.0000000,0.0000203,0.0000000,0.0000000,0.0000040
78.0991990,,1.0201000,-0.9674633,-0.2529987,-0.0000961,0.0025582,,,,0.0000000,0.0000000,0.0000000,1.0560272,-4.1295524,-10.7505894,0.0000000,0.0000000,0.0000000,0.1020100,0.0001990,0.0000000,0.0000000,0.0000199,0.0000000,0.0000000,0.0000000,0.0001990,0.0000000,0.0000000,0.0000199,0.0000000,0.0000000,0.0000000,0.0001990,0.0000000,0.0000000,0.0000199,0.0000199,0.0000000,0.0000000,0.0000040,0.0000000,0.0000000,0.0000000,0.0000199,0.0000000,0.0000000,0.0000040,0.0000000,0.0000000,0.0000000,0.0000199,0.0000000,0.0000000,0.0000040
78.1124530,1.1001000,,-0.9674633,-0.2529987,-0.0001052,0.0025548,0.0042443,-0.0026711,0.0047582,,,,1.0560272,-4.1295524,-10.7505894,0.0000000,0.0000000,0.0000000,0.0220020,0.0001998,0.0000000,0.0000000,0.0000200,0.0000000,0.0000000,0.0000000,0.0001998,0.0000000,0.0000000,0.0000200,0.0000000,0.0000000,0.0000000,0.0001998,0.0000000,0.0000000,0.0000200,0.0000200,0.0000000,0.0000000,0.0000040,0.0000000,0.0000000,0.0000000,0.0000200,0.0000000,0.0000000,0.0000040,0.0000000,0.0000000,0.0000000,0.0000200,0.0000000,0.0000000,0.0000040
78.1259510,1.0997500,,-0.9674633,-0.2529987,-0.0000997,0.0025347,-0.0015324,-0.0028309,0.0009142,,,,1.0560272,-4.1295524,-10.7505894,0.0000000,0.0000000,0.0000000,0.0219950,0.0002007,0.0000000,0.0000000,0.0000200,0.0000000,0.0000000,0.0000000,0.0002007,0.0000000,0.0000000,0.0000200,0.0000000,0.0000000,0.0000000,0.0002007,0.0000000,0.0000000,0.0000200,0.0000200,0.0000000,0.0000000,0.0000040,0.0000000,0.0000000,0.0000000,0.0000200,0.0000000,0.0000000,0.0000040,0.0000000,0.0000000,0.0000000,0.0000200,0.0000000,0.0000000,0.0000040
78.1468150,1.0499500,,-0.9674634,-0.2529987,-0.0000814,0.0025112,-0.0092653,-0.0024378,0.0080255,,,,1.0560272,-4.1295524,-10.7505894,0.0000000,0.0000000,0.0000000,0.0209990,0.0002016,0.0000000,0.0000000,0.0000201,0.0000000,0.0000000,0.0000000,0.0002016,0.0000000,0.0000000,0.0000201,0.0000000,0.0000000,0.0000000,0.0002016,0.0000000,0.0000000,0.0000201,0.0000201,0.0000000,0.0000000,0.0000040,0.0000000,0.0000000,0.0000000,0.0000201,0.0000000,0.0000000,0.0000040,0.0000000,0.0000000,0.0000000,0.0000201,0.0000000,0.0000000,0.0000040
78.1665910,1.0005001,,-0.9674634,-0.2529987,-0.0000765,0.0025098,-0.0067994,-0.0029584,0.0042569,,,,1.0560272,-4.1295524,-10.7505894,0.0000000,0.0000000,0.0000000,0.0200100,0.0002024,0.0000000,0.0000000,0.0000202,0.0000000,0.0000000,0.0000000,0.0002024,0.0000000,0.0000000,0.0000202,0.0000000,0.0000000,0.0000000,0.0002024,0.0000000,0.0000000,0.0000202,0.0000202,0.0000000,0.0000000,0.0000040,0.0000000,0.0000000,0.0000000,0.0000202,0.0000000,0.0000000,0.0000040,0.0000000,0.0000000,0.0000000,0.0000202,0.0000000,0.0000000,0.0000040
78.1875460,1.0497000,,-0.9674634,-0.2529986,-0.0000568,0.0024927,-0.0050324,-0.0015326,0.0035933,,,,1.0560272,-4.1295524,-10.7505894,0.0000000,0.0000000,0.0000000,0.0209940,0.0002032,0.0000000,0.0000000,0.0000203,0.0000000,0.0000000,0.0000000,0.0002032,0.0000000,0.0000000,0.0000203,0.0000000,0.0000000,0.0000000,0.0002032,0.0000000,0.0000000,0.0000203,0.0000203,0.0000000,0.0000000,0.0000040,0.0000000,0.0000000,0.0000000,0.0000203,0.0000000,0.0000000,0.0000040,0.0000000,0.0000000,0.0000000,0.0000203,0.0000000,0.0000000,0.0000040
78.2037690,,0.9999100,-0.9674634,-0.2529986,-0.0000568,0.0024927,,,,0.0000000,0.0000000,0.0000000,1.0560272,-4.1295524,-10.7505894,0.0000000,0.0000000,0.0000000,0.0999910,0.0001992,0.0000000,0.0000000,0.0000199,0.0000000,0.0000000,0.0000000,0.0001992,0.0000000,0.0000000,0.0000199,0.0000000,0.0000000,0.0000000,0.0001992,0.0000000,0.0000000,0.0000199,0.0000199,0.0000000,0.0000000,0.0000040,0.0000000,0.0000000,0.0000000,0.0000199,0.0000000,0.0000000,0.0000040,0.0000000,0.0000000,0.0000000,0.0000199,0.0000000,0.0000000,0.0000040
78.2174200,1.1000000,,-0.9674635,-0.2529986,-0.0000407,0.0024745,0.0041672,-0.0047412,0.0047263,,,,1.0560272,-4.1295524,-10.7505894,0.0000000,0.0000000,0.0000000,0.0220000,0.0002000,0.0000000,0.0000000,0.0000200,0.0000000,0.0000000,0.0000000,0.0002000,0.0000000,0.0000000,0.0000200,0.0000000,0.0000000,0.0000000,0.0002000,0.0000000,0.0000000,0.0000200,0.0000200,0.0000000,0.0000000,0.0000040,0.0000000,0.0000000,0.0000000,0.0000200,0.0000000,0.0000000,0.0000040,0.0000000,0.0000000,0.0000000,0.0000200,0.0000000,0.0000000,0.0000040
78.2308730,1.0498501,,-0.9674635,-0.2529985,-0.0000163,0.0024767,0.0007332,-0.0004556,0.0013866,,,,1.0560272,-4.1295524,-10.7505894,0.0000000,0.0000000,0.0000000,0.0209970,0.0002009,0.0000000,0.0000000,0.0000201,0.0000000,0.0000000,0.0000000,0.0002009,0.0000000,0.0000000,0.0000201,0.0000000,0.0000000,0.0000000,0.0002009,0.0000000,0.0000000,0.0000201,0.0000201,0.0000000,0.0000000,0.0000040,0.0000000,0.0000000,0.0000000,0.0000201,0.0000000,0.0000000,0.0000040,0.0000000,0.0000000,0.0000000,0.0000201,0.0000000,0.0000000,0.0000040
78.2521110,1.0001000,,-0.9674635,-0.2529985,-0.0000172,0.0024751,-0.0010067,-0.0010060,0.0077734,,,,1.0560272,-4.1295524,-10.7505894,0.0000000,0.0000000,0.0000000,0.0200020,0.0002017,0.0000000,0.0000000,0.0000201,0.0000000,0.0000000,0.0000000,0.0002017,0.0000000,0.0000000,0.0000201,0.0000000,0.0000000,0.0000000,0.0002017,0.0000000,0.0000000,0.0000201,0.0000201,0.0000000,0.0000000,0.0000040,0.0000000,0.0000000,0.0000000,0.0000201,0.0000000,0.0000000,0.0000040,0.0000000,0.0000000,0.0000000,0.0000201,0.0000000,0.0000000,0.0000040
78.2708590,1.0006500,,-0.9674635,-0.2529985,-0.0000007,0.0024927,-0.0001448,-0.0075907,0.0068164,,,,1.0560272,-4.1295524,-10.7505894,0.0000000,0.0000000,0.0000000,0.0200130,0.0002025,0.0000000,0.0000000,0.0000202,0.0000000,0.0000000,0.0000000,0.0002025,0.0000000,0.0000000,0.0000202,0.0000000,0.0000000,0.0000000,0.0002025,0.0000000,0.0000000,0.0000202,0.0000202,0.0000000,0.0000000,0.0000040,0.0000000,0.0000000,0.0000000,0.0000202,0.0000000,0.0000000,0.0000040,0.0000000,0.0000000,0.0000000,0.0000202,0.0000000,0.0000000,0.0000040
78.2915950,1.0493500,,-0.9674635,-0.2529984,0.0000290,0.0025053,-0.0004081,-0.0079305,0.0090234,,,,1.0560272,-4.1295524,-10.7505894,0.0000000,0.0000000,0.0000000,0.0209870,0.0002033,0.0000000,0.0000000,0.0000203,0.0000000,0.0000000,0.0000000,0.0002033,0.0000000,0.0000000,0.0000203,0.0000000,0.0000000,0.0000000,0.0002033,0.0000000,0.0000000,0.0000203,0.0000203,0.0000000,0.0000000,0.0000040,0.0000000,0.0000000,0.0000000,0.0000203,0.0000000,0.0000000,0.0000040,0.0000000,0.0000000,0.0000000,0.0000203,0.0000000,0.0000000,0.0000040
78.3091180,,1.0200601,-0.9674635,-0.2529984,0.0000290,0.0025053,,,,0.0000000,0.0000000,0.0000000,1.0560272,-4.1295524,-10.7505894,0.0000000,0.0000000,0.0000000,0.1020060,0.0001993,0.0000000,0.0000000,0.0000199,0.0000000,0.0000000,0.0000000,0.0001993,0.0000000,0.0000000,0.0000199,0.0000000,0.0000000,0.0000000,0.0001993,0.0000000,0.0000000,0.0000199,0.0000199,0.0000000,0.0000000,0.0000040,0.0000000,0.0000000,0.0000000,0.0000199,0.0000000,0.0000000,0.0000040,0.0000000,0.0000000,0.0000000,0.0000199,0.0000000,0.0000000,0.0000040
78.3224640,1.1001000,,-0.9674635,-0.2529984,0.0000599,0.0025180,-0.0058803,-0.0066203,0.0064648,,,,1.0560272,-4.1295524,-10.7505894,0.0000000,0.0000000,0.0000000,0.0220020,0.0002002,0.0000000,0.0000000,0.0000200,0.0000000,0.0000000,0.0000000,0.0002002,0.0000000,0.0000000,0.0000200,0.0000000,0.0000000,0.0000000,0.0002002,0.0000000,0.0000000,0.0000200,0.0000200,0.0000000,0.0000000,0.0000040,0.0000000,0.0000000,0.0000000,0.0000200,0.0000000,0.0000000,0.0000040,0.0000000,0.0000000,0.0000000,0.0000200,0.0000000,0.0000000,0.0000040
78.3358920,1.0998001,,-0.9674634,-0.2529984,0.0000549,0.0025469,-0.0013456,-0.0034856,0.0078711,,,,1.0560272,-4.1295524,-10.7505894,0.0000000,0.0000000,0.0000000,0.0219960,0.0002010,0.0000000,0.0000000,0.0000201,0.0000000,0.0000000,0.0000000,0.0002010,0.0000000,0.0000000,0.0000201,0.0000000,0.0000000,0.0000000,0.0002010,0.0000000,0.0000000,0.0000201,0.0000201,0.0000000,0.0000000,0.0000040,0.0000000,0.0000000,0.0000000,0.0000201,0.0000000,0.0000000,0.0000040,0.0000000,0.0000000,0.0000000,0.0000201,0.0000000,0.0000000,0.0000040
78.3570600,1.0001000,,-0.9674634,-0.2529983,0.0000696,0.0025499,-0.0031829,0.0009961,-0.0053418,,,,1.0560272,-4.1295524,-10.7505894,0.0000000,0.0000000,0.0000000,0.0200020,0.0002018,0.0000000,0.0000000,0.0000202,0.0000000,0.0000000,0.0000000,0.0002018,0.0000000,0.0000000,0.0000202,0.0000000,0.0000000,0.0000000,0.0002018,0.0000000,0.0000000,0.0000202,0.0000202,0.0000000,0.0000000,0.0000040,0.0000000,0.0000000,0.0000000,0.0000202,0.0000000,0.0000000,0.0000040,0.0000000,0.0000000,0.0000000,0.0000202,0.0000000,0.0000000,0.0000040
78.3758240,1.0002999,,-0.9674633,-0.2529983,0.0000799,0.0025717,-0.0026443,0.0010779,-0.0087744,,,,1.0560272,-4.1295524,-10.7505894,0.0000000,0.0000000,0.0000000,0.0200060,0.0002027,0.0000000,0.0000000,0.0000202,0.0000000,0.0000000,0.0000000,0.0002027,0.0000000,0.0000000,0.0000202,0.0000000,0.0000000,0.0000000,0.0002027,0.0000000,0.0000000,0.0000202,0.0000202,0.0000000,0.0000000,0.0000040,0.0000000,0.0000000,0.0000000,0.0000202,0.0000000,0.0000000,0.0000040,0.0000000,0.0000000,0.0000000,0.0000202,0.0000000,0.0000000,0.0000040
78.3968440,,0.9999400,-0.9674633,-0.2529982,0.0000897,0.0025690,,,,0.0000000,0.0000000,0.0000000,1.0560272,-4.1295524,-10.7505894,0.0000000,0.0000000,0.0000000,0.0999940,0.0001986,0.0000000,0.0000000,0.0000198,0.0000000,0.0000000,0.0000000,0.0001986,0.0000000,0.0000000,0.0000198,0.0000000,0.0000000,0.0000000,0.0001986,0.0000000,0.0000000,0.0000198,0.0000198,0.0000000,0.0000000,0.0000040,0.0000000,0.0000000,0.0000000,0.0000198,0.0000000,0.0000000,0.0000040,0.0000000,0.0000000,0.0000000,0.0000198,0.0000000,0.0000000,0.0000040
78.4105350,1.0996000,,-0.9674633,-0.2529982,0.0000897,0.0025690,-0.0089515,0.0013400,0.0000073,,,,1.0560272,-4.1295524,-10.7505894,0.0000000,0.0000000,0.0000000,0.0219920,0.0001995,0.0000000,0.0000000,0.0000199,0.0000000,0.0000000,0.0000000,0.0001995,0.0000000,0.0000000,0.0000199,0.0000000,0.0000000,0.0000000,0.0001995,0.0000000,0.0000000,0.0000199,0.0000199,0.0000000,0.0000000,0.0000040,0.0000000,0.0000000,0.0000000,0.0000199,0.0000000,0.0000000,0.0000040,0.0000000,0.0000000,0.0000000,0.0000199,0.0000000,0.0000000,0.0000040
78.4238640,1.3000500,,-0.9674633,-0.2529982,0.0000954,0.0025817,-0.0055210,0.0002809,0.0053748,,,,1.0560272,-4.1295524,-10.7505894,0.0000000,0.0000000,0.0000000,0.0260010,0.0002005,0.0000000,0.0000000,0.0000200,0.0000000,0.0000000,0.0000000,0.0002005,0.0000000,0.0000000,0.0000200,0.0000000,0.0000000,0.0000000,0.0002005,0.0000000,0.0000000,0.0000200,0.0000200,0.0000000,0.0000000,0.0000040,0.0000000,0.0000000,0.0000000,0.0000200,0.0000000,0.0000000,0.0000040,0.0000000,0.0000000,0.0000000,0.0000200,0.0000000,0.0000000,0.0000040
78.4438580,1.0005500,,-0.9674633,-0.2529982,0.0000911,0.0025886,-0.0047975,0.0012086,0.0007343,,,,1.0560272,-4.1295524,-10.7505894,0.0000000,0.0000000,0.0000000,0.0200110,0.0002013,0.0000000,0.0000000,0.0000201,0.0000000,0.0000000,0.0000000,0.0002013,0.0000000,0.0000000,0.0000201,0.0000000,0.0000000,0.0000000,0.0002013,0.0000000,0.0000000,0.0000201,0.0000201,0.0000000,0.0000000,0.0000040,0.0000000,0.0000000,0.0000000,0.0000201,0.0000000,0.0000000,0.0000040,0.0000000,0.0000000,0.0000000,0.0000201,0.0000000,0.0000000,0.0000040
78.4636420,0.9995000,,-0.9674633,-0.2529983,0.0000738,0.0025944,-0.0034898,0.0014283,-0.0018301,,,,1.0560272,-4.1295524,-10.7505894,0.0000000,0.0000000,0.0000000,0.0199900,0.0002021,0.0000000,0.0000000,0.0000202,0.0000000,0.0000000,0.0000000,0.0002021,0.0000000,0.0000000,0.0000202,0.0000000,0.0000000,0.0000000,0.0002021,0.0000000,0.0000000,0.0000202,0.0000202,0.0000000,0.0000000,0.0000040,0.0000000,0.0000000,0.0000000,0.0000202,0.0000000,0.0000000,0.0000040,0.0000000,0.0000000,0.0000000,0.0000202,0.0000000,0.0000000,0.0000040
78.4834880,1.0001000,,-0.9674634,-0.2529983,0.0000848,0.0025466,-0.0005700,0.0090225,-0.0023799,,,,1.0560272,-4.1295524,-10.7505894,0.0000000,0.0000000,0.0000000,0.0200020,0.0002029,0.0000000,0.0000000,0.0000203,0.0000000,0.0000000,0.0000000,0.0002029,0.0000000,0.0000000,0.0000203,0.0000000,0.0000000,0.0000000,0.0002029,0.0000000,0.0000000,0.0000203,0.0000203,0.0000000,0.0000000,0.0000040,0.0000000,0.0000000,0.0000000,0.0000203,0.0000000,0.0000000,0.0000040,0.0000000,0.0000000,0.0000000,0.0000203,0.0000000,0.0000000,0.0000040
78.5003600,,1.0000299,-0.9674634,-0.2529983,0.0000848,0.0025466,,,,0.0000000,0.0000000,0.0000000,1.0560272,-4.1295524,-10.7505894,0.0000000,0.0000000,0.0000000,0.1000030,0.0001989,0.0000000,0.0000000,0.0000199,0.0000000,0.0000000,0.0000000,0.0001989,0.0000000,0.0000000,0.0000199,0.0000000,0.0000000,0.0000000,0.0001989,0.0000000,0.0000000,0.0000199,0.0000199,0.0000000,0.0000000,0.0000040,0.0000000,0.0000000,0.0000000,0.0000199,0.0000000,0.0000000,0.0000040,0.0000000,0.0000000,0.0000000,0.0000199,0.0000000,0.0000000,0.0000040
78.5140690,1.1005000,,-0.9674634,-0.2529983,0.0000937,0.0025377,-0.0066784,-0.0003334,0.0063784,,,,1.0560272,-4.1295524,-10.7505894,0.0000000,0.0000000,0.0000000,0.0220100,0.0001998,0.0000000,0.0000000,0.0000200,0.0000000,0.0000000,0.0000000,0.0001998,0.0000000,0.0000000,0.0000200,0.0000000,0.0000000,0.0000000,0.0001998,0.0000000,0.0000000,0.0000200,0.0000200,0.0000000,0.0000000,0.0000040,0.0000000,0.0000000,0.0000000,0.0000200,0.0000000,0.0000000,0.0000040,0.0000000,0.0000000,0.0000000,0.0000200,0.0000000,0.0000000,0.0000040
78.5275700,1.0993501,,-0.9674635,-0.2529983,0.0001066,0.0025116,-0.0014090,0.0003216,0.0117341,,,,1.0560272,-4.1295524,-10.7505894,0.0000000,0.0000000,0.0000000,0.0219870,0.0002007,0.0000000,0.0000000,0.0000200,0.0000000,0.0000000,0.0000000,0.0002007,0.0000000,0.0000000,0.0000200,0.0000000,0.0000000,0.0000000,0.0002007,0.0000000,0.0000000,0.0000200,0.0000200,0.0000000,0.0000000,0.0000040,0.0000000,0.0000000,0.0000000,0.0000200,0.0000000,0.0000000,0.0000040,0.0000000,0.0000000,0.0000000,0.0000200,0.0000000,0.0000000,0.0000040
78.5479850,1.0000501,,-0.9674636,-0.2529982,0.0001199,0.0024829,0.0041783,0.0050131,0.0114823,,,,1.0560272,-4.1295524,-10.7505894,0.0000000,0.0000000,0.0000000,0.0200010,0.0002015,0.0000000,0.0000000,0.0000201,0.0000000,0.0000000,0.0000000,0.0002015,0.0000000,0.0000000,0.0000201,0.0000000,0.0000000,0.0000000,0.0002015,0.0000000,0.0000000,0.0000201,0.0000201,0.0000000,0.0000000,0.0000040,0.0000000,0.0000000,0.0000000,0.0000201,0.0000000,0.0000000,0.0000040,0.0000000,0.0000000,0.0000000,0.0000201,0.0000000,0.0000000,0.0000040
78.5678290,1.0000000,,-0.9674636,-0.2529982,0.0001226,0.0024789,0.0072009,0.0029796,0.0128212,,,,1.0560272,-4.1295524,-10.7505894,0.0000000,0.0000000,0.0000000,0.0200000,0.0002023,0.0000000,0.0000000,0.0000202,0.0000000,0.0000000,0.0000000,0.0002023,0.0000000,0.0000000,0.0000202,0.0000000,0.0000000,0.0000000,0.0002023,0.0000000,0.0000000,0.0000202,0.0000202,0.0000000,0.0000000,0.0000040,0.0000000,0.0000000,0.0000000,0.0000202,0.0000000,0.0000000,0.0000040,0.0000000,0.0000000,0.0000000,0.0000202,0.0000000,0.0000000,0.0000040
78.5876350,1.0004500,,-0.9674636,-0.2529983,0.0001117,0.0024532,0.0047982,0.0038702,-0.0004253,,,,1.0560272,-4.1295524,-10.7505894,0.0000000,0.0000000,0.0000000,0.0200090,0.0002031,0.0000000,0.0000000,0.0000203,0.0000000,0.0000000,0.0000000,0.0002031,0.0000000,0.0000000,0.0000203,0.0000000,0.0000000,0.0000000,0.0002031,0.0000000,0.0000000,0.0000203,0.0000203,0.0000000,0.0000000,0.0000040,0.0000000,0.0000000,0.0000000,0.0000203,0.0000000,0.0000000,0.0000040,0.0000000,0.0000000,0.0000000,0.0000203,0.0000000,0.0000000,0.0000040
78.6036390,,1.0000401,-0.9674636,-0.2529983,0.0001117,0.0024532,,,,0.0000000,0.0000000,0.0000000,1.0560272,-4.1295524,-10.7505894,0.0000000,0.0000000,0.0000000,0.1000040,0.0001990,0.0000000,0.0000000,0.0000199,0.0000000,0.0000000,0.0000000,0.0001990,0.0000000,0.0000000,0.0000199,0.0000000,0.0000000,0.0000000,0.0001990,0.0000000,0.0000000,0.0000199,0.0000199,0.0000000,0.0000000,0.0000040,0.0000000,0.0000000,0.0000000,0.0000199,0.0000000,0.0000000,0.0000040,0.0000000,0.0000000,0.0000000,0.0000199,0.0000000,0.0000000,0.0000040
78.6176450,1.0995500,,-0.9674636,-0.2529983,0.0001009,0.0024529,-0.0025218,0.0009204,-0.0016775,,,,1.0560272,-4.1295524,-10.7505894,0.0000000,0.0000000,0.0000000,0.0219910,0.0001999,0.0000000,0.0000000,0.0000200,0.0000000,0.0000000,0.0000000,0.0001999,0.0000000,0.0000000,0.0000200,0.0000000,0.0000000,0.0000000,0.0001999,0.0000000,0.0000000,0.0000200,0.0000200,0.0000000,0.0000000,0.0000040,0.0000000,0.0000000,0.0000000,0.0000200,0.0000000,0.0000000,0.0000040,0.0000000,0.0000000,0.0000000,0.0000200,0.0000000,0.0000000,0.0000040
78.6304570,1.0498999,,-0.9674636,-0.2529984,0.0000821,0.0024746,-0.0047552,0.0004526,0.0023351,,,,1.0560272,-4.1295524,-10.7505894,0.0000000,0.0000000,0.0000000,0.0209980,0.0002008,0.0000000,0.0000000,0.0000201,0.0000000,0.0000000,0.0000000,0.0002008,0.0000000,0.0000000,0.0000201,0.0000000,0.0000000,0.0000000,0.0002008,0.0000000,0.0000000,0.0000201,0.0000201,0.0000000,0.0000000,0.0000040,0.0000000,0.0000000,0.0000000,0.0000201,0.0000000,0.0000000,0.0000040,0.0000000,0.0000000,0.0000000,0.0000201,0.0000000,0.0000000,0.0000040
78.6517830,1.0505000,,-0.9674635,-0.2529984,0.0000777,0.0025059,-0.0048953,-0.0033977,0.0001910,,,,1.0560272,-4.1295524,-10.7505894,0.0000000,0.0000000,0.0000000,0.0210100,0.0002016,0.0000000,0.0000000,0.0000201,0.0000000,0.0000000,0.0000000,0.0002016,0.0000000,0.0000000,0.0000201,0.0000000,0.0000000,0.0000000,0.0002016,0.0000000,0.0000000,0.0000201,0.0000201,0.0000000,0.0000000,0.0000040,0.0000000,0.0000000,0.0000000,0.0000201,0.0000000,0.0000000,0.0000040,0.0000000,0.0000000,0.0000000,0.0000201,0.0000000,0.0000000,0.0000040
78.6718150,0.9996500,,-0.9674635,-0.2529984,0.0000629,0.0025126,-0.0008378,0.0022227,0.0018045,,,,1.0560272,-4.1295524,-10.7505894,0.0000000,0.0000000,0.0000000,0.0199930,0.0002024,0.0000000,0.0000000,0.0000202,0.0000000,0.0000000,0.0000000,0.0002024,0.0000000,0.0000000,0.0000202,0.0000000,0.0000000,0.0000000,0.0002024,0.0000000,0.0000000,0.0000202,0.0000202,0.0000000,0.0000000,0.0000040,0.0000000,0.0000000,0.0000000,0.0000202,0.0000000,0.0000000,0.0000040,0.0000000,0.0000000,0.0000000,0.0000202,0.0000000,0.0000000,0.0000040
78.6916300,1.0003500,,-0.9674634,-0.2529984,0.0000431,0.0025272,-0.0007928,0.0008977,0.0016347,,,,1.0560272,-4.1295524,-10.7505894,0.0000000,0.0000000,0.0000000,0.0200070,0.0002032,0.0000000,0.0000000,0.0000203,0.0000000,0.0000000,0.0000000,0.0002032,0.0000000,0.0000000,0.0000203,0.0000000,0.0000000,0.0000000,0.0002032,0.0000000,0.0000000,0.0000203,0.0000203,0.0000000,0.0000000,0.0000040,0.0000000,0.0000000,0.0000000,0.0000203,0.0000000,0.0000000,0.0000040,0.0000000,0.0000000,0.0000000,0.0000203,0.0000000,0.0000000,0.0000040
78.7077660,,1.0200300,-0.9674634,-0.2529984,0.0000431,0.0025272,,,,0.0000000,0.0000000,0.0000000,1.0560272,-4.1295524,-10.7505894,0.0000000,0.0000000,0.0000000,0.1020030,0.0001992,0.0000000,0.0000000,0.0000199,0.0000000,0.0000000,0.0000000,0.0001992,0.0000000,0.0000000,0.0000199,0.0000000,0.0000000,0.0000000,0.0001992,0.0000000,0.0000000,0.0000199,0.0000199,0.0000000,0.0000000,0.0000040,0.0000000,0.0000000,0.0000000,0.0000199,0.0000000,0.0000000,0.0000040,0.0000000,0.0000000,0.0000000,0.0000199,0.0000000,0.0000000,0.0000040
78.7212060,1.0997001,,-0.9674634,-0.2529985,0.0000054,0.0025378,-0.0013119,0.0041339,0.0037470,,,,1.0560272,-4.1295524,-10.7505894,0.0000000,0.0000000,0.0000000,0.0219940,0.0002000,0.0000000,0.0000000,0.0000200,0.0000000,0.0000000,0.0000000,0.0002000,0.0000000,0.0000000,0.0000200,0.0000000,0.0000000,0.0000000,0.0002000,0.0000000,0.0000000,0.0000200,0.0000200,0.0000000,0.0000000,0.0000040,0.0000000,0.0000000,0.0000000,0.0000200,0.0000000,0.0000000,0.0000040,0.0000000,0.0000000,0.0000000,0.0000200,0.0000000,0.0000000,0.0000040
78.7346650,1.0498000,,-0.9674633,-0.2529985,-0.0000055,0.0025660,-0.0049895,0.0043329,0.0052915,,,,1.0560272,-4.1295524,-10.7505894,0.0000000,0.0000000,0.0000000,0.0209960,0.0002009,0.0000000,0.0000000,0.0000201,0.0000000,0.0000000,0.0000000,0.0002009,0.0000000,0.0000000,0.0000201,0.0000000,0.0000000,0.0000000,0.0002009,0.0000000,0.0000000,0.0000201,0.0000201,0.0000000,0.0000000,0.0000040,0.0000000,0.0000000,0.0000000,0.0000201,0.0000000,0.0000000,0.0000040,0.0000000,0.0000000,0.0000000,0.0000201,0.0000000,0.0000000,0.0000040
78.7562230,1.0003999,,-0.9674633,-0.2529985,-0.0000169,0.0025722,-0.0019530,-0.0016864,0.0038664,,,,1.0560272,-4.1295524,-10.7505894,0.0000000,0.0000000,0.0000000,0.0200080,0.0002017,0.0000000,0.0000000,0.0000201,0.0000000,0.0000000,0.0000000,0.0002017,0.0000000,0.0000000,0.0000201,0.0000000,0.0000000,0.0000000,0.0002017,0.0000000,0.0000000,0.0000201,0.0000201,0.0000000,0.0000000,0.0000040,0.0000000,0.0000000,0.0000000,0.0000201,0.0000000,0.0000000,0.0000040,0.0000000,0.0000000,0.0000000,0.0000201,0.0000000,0.0000000,0.0000040
78.7746990,1.0003999,,-0.9674633,-0.2529985,-0.0000205,0.0025740,-0.0009155,-0.0007974,0.0068160,,,,1.0560272,-4.1295524,-10.7505894,0.0000000,0.0000000,0.0000000,0.0200080,0.0002025,0.0000000,0.0000000,0.0000202,0.0000000,0.0000000,0.0000000,0.0002025,0.0000000,0.0000000,0.0000202,0.0000000,0.0000000,0.0000000,0.0002025,0.0000000,0.0000000,0.0000202,0.0000202,0.0000000,0.0000000,0.0000040,0.0000000,0.0000000,0.0000000,0.0000202,0.0000000,0.0000000,0.0000040,0.0000000,0.0000000,0.0000000,0.0000202,0.0000000,0.0000000,0.0000040
78.7948560,0.9996000,,-0.9674632,-0.2529985,-0.0000189,0.0025880,-0.0040588,-0.0027638,0.0024315,,,,1.0560272,-4.1295524,-10.7505894,0.0000000,0.0000000,0.0000000,0.0199920,0.0002033,0.0000000,0.0000000,0.0000203,0.0000000,0.0000000,0.0000000,0.0002033,0.0000000,0.0000000,0.0000203,0.0000000,0.0000000,0.0000000,0.0002033,0.0000000,0.0000000,0.0000203,0.0000203,0.0000000,0.0000000,0.0000040,0.0000000,0.0000000,0.0000000,0.0000203,0.0000000,0.0000000,0.0000040,0.0000000,0.0000000,0.0000000,0.0000203,0.0000000,0.0000000,0.0000040
78.8107940,,0.9999100,-0.9674632,-0.2529985,-0.0000189,0.0026018,,,,0.0000000,0.0000000,0.0000000,1.0560272,-4.1295524,-10.7505894,0.0000000,0.0000000,0.0000000,0.0999910,0.0001992,0.0000000,0.0000000,0.0000199,0.0000000,0.0000000,0.0000000,0.0001992,0.0000000,0.0000000,0.0000199,0.0000000,0.0000000,0.0000000,0.0001992,0.0000000,0.0000000,0.0000199,0.0000199,0.0000000,0.0000000,0.0000040,0.0000000,0.0000000,0.0000000,0.0000199,0.0000000,0.0000000,0.0000040,0.0000000,0.0000000,0.0000000,0.0000199,0.0000000,0.0000000,0.0000040
78.8244760,0.9998000,,-0.9674631,-0.2529986,-0.0000321,0.0026018,0.0016632,0.0033407,-0.0058644,,,,1.0560272,-4.1295524,-10.7505894,0.0000000,0.0000000,0.0000000,0.0199960,0.0002000,0.0000000,0.0000000,0.0000200,0.0000000,0.0000000,0.0000000,0.0002000,0.0000000,0.0000000,0.0000200,0.0000000,0.0000000,0.0000000,0.0002000,0.0000000,0.0000000,0.0000200,0.0000200,0.0000000,0.0000000,0.0000040,0.0000000,0.0000000,0.0000000,0.0000200,0.0000000,0.0000000,0.0000040,0.0000000,0.0000000,0.0000000,0.0000200,0.0000000,0.0000000,0.0000040
78.8375540,1.1497999,,-0.9674631,-0.2529985,-0.0000238,0.0026033,0.0072403,0.0039439,-0.0080591,,,,1.0560272,-4.1295524,-10.7505894,0.0000000,0.0000000,0.0000000,0.0229960,0.0002010,0.0000000,0.0000000,0.0000201,0.0000000,0.0000000,0.0000000,0.0002010,0.0000000,0.0000000,0.0000201,0.0000000,0.0000000,0.0000000,0.0002010,0.0000000,0.0000000,0.0000201,0.0000201,0.0000000,0.0000000,0.0000040,0.0000000,0.0000000,0.0000000,0.0000201,0.0000000,0.0000000,0.0000040,0.0000000,0.0000000,0.0000000,0.0000201,0.0000000,0.0000000,0.0000040
78.8588290,1.0501500,,-0.9674631,-0.2529985,-0.0000079,0.0025950,0.0044441,0.0005758,0.0025622,,,,1.0560272,-4.1295524,-10.7505894,0.0000000,0.0000000,0.0000000,0.0210030,0.0002018,0.0000000,0.0000000,0.0000202,0.0000000,0.0000000,0.0000000,0.0002018,0.0000000,0.0000000,0.0000202,0.0000000,0.0000000,0.0000000,0.0002018,0.0000000,0.0000000,0.0000202,0.0000202,0.0000000,0.0000000,0.0000040,0.0000000,0.0000000,0.0000000,0.0000202,0.0000000,0.0000000,0.0000040,0.0000000,0.0000000,0.0000000,0.0000202,0.0000000,0.0000000,0.0000040
78.8788340,1.0001000,,-0.9674633,-0.2529985,0.0000170,0.0025785,0.0033283,0.0000972,-0.0016486,,,,1.0560272,-4.1295524,-10.7505894,0.0000000,0.0000000,0.0000000,0.0200020,0.0002026,0.0000000,0.0000000,0.0000202,0.0000000,0.0000000,0.0000000,0.0002026,0.0000000,0.0000000,0.0000202,0.0000000,0.0000000,0.0000000,0.0002026,0.0000000,0.0000000,0.0000202,0.0000202,0.0000000,0.0000000,0.0000040,0.0000000,0.0000000,0.0000000,0.0000202,0.0000000,0.0000000,0.0000040,0.0000000,0.0000000,0.0000000,0.0000202,0.0000000,0.0000000,0.0000040
78.8989630,,0.9999900,-0.9674633,-0.2529985,0.0000225,0.0025660,,,,0.0000000,0.0000000,0.0000000,1.0560272,-4.1295524,-10.7505894,0.0000000,0.0000000,0.0000000,0.0999990,0.0001986,0.0000000,0.0000000,0.0000198,0.0000000,0.0000000,0.0000000,0.0001986,0.0000000,0.0000000,0.0000198,0.0000000,0.0000000,0.0000000,0.0001986,0.0000000,0.0000000,0.0000198,0.0000198,0.0000000,0.0000000,0.0000040,0.0000000,0.0000000,0.0000000,0.0000198,0.0000000,0.0000000,0.0000040,0.0000000,0.0000000,0.0000000,0.0000198,0.0000000,0.0000000,0.0000040
78.9112530,1.0002000,,-0.9674633,-0.2529985,0.0000225,0.0025660,0.0039759,0.0020398,0.0001523,,,,1.0560272,-4.1295524,-10.7505894,0.0000000,0.0000000,0.0000000,0.0200040,0.0001994,0.0000000,0.0000000,0.0000199,0.0000000,0.0000000,0.0000000,0.0001994,0.0000000,0.0000000,0.0000199,0.0000000,0.0000000,0.0000000,0.0001994,0.0000000,0.0000000,0.0000199,0.0000199,0.0000000,0.0000000,0.0000040,0.0000000,0.0000000,0.0000000,0.0000199,0.0000000,0.0000000,0.0000040,0.0000000,0.0000000,0.0000000,0.0000199,0.0000000,0.0000000,0.0000040
78.9246510,1.2995501,,-0.9674634,-0.2529984,0.0000384,0.0025417,-0.0003009,0.0022559,-0.0038301,,,,1.0560272,-4.1295524,-10.7505894,0.0000000,0.0000000,0.0000000,0.0259910,0.0002004,0.0000000,0.0000000,0.0000200,0.0000000,0.0000000,0.0000000,0.0002004,0.0000000,0.0000000,0.0000200,0.0000000,0.0000000,0.0000000,0.0002004,0.0000000,0.0000000,0.0000200,0.0000200,0.0000000,0.0000000,0.0000040,0.0000000,0.0000000,0.0000000,0.0000200,0.0000000,0.0000000,0.0000040,0.0000000,0.0000000,0.0000000,0.0000200,0.0000000,0.0000000,0.0000040
78.9446740,1.0005500,,-0.9674634,-0.2529984,0.0000558,0.0025227,0.0005133,0.0016162,-0.0046006,,,,1.0560272,-4.1295524,-10.7505894,0.0000000,0.0000000,0.0000000,0.0200110,0.0002012,0.0000000,0.0000000,0.0000201,0.0000000,0.0000000,0.0000000,0.0002012,0.0000000,0.0000000,0.0000201,0.0000000,0.0000000,0.0000000,0.0002012,0.0000000,0.0000000,0.0000201,0.0000201,0.0000000,0.0000000,0.0000040,0.0000000,0.0000000,0.0000000,0.0000201,0.0000000,0.0000000,0.0000040,0.0000000,0.0000000,0.0000000,0.0000201,0.0000000,0.0000000,0.0000040
78.9661380,0.9999500,,-0.9674634,-0.2529984,0.0000556,0.0025182,0.0101749,0.0032571,-0.0059624,,,,1.0560272,-4.1295524,-10.7505894,0.0000000,0.0000000,0.0000000,0.0199990,0.0002020,0.0000000,0.0000000,0.0000202,0.0000000,0.0000000,0.0000000,0.0002020,0.0000000,0.0000000,0.0000202,0.0000000,0.0000000,0.0000000,0.0002020,0.0000000,0.0000000,0.0000202,0.0000202,0.0000000,0.0000000,0.0000040,0.0000000,0.0000000,0.0000000,0.0000202,0.0000000,0.0000000,0.0000040,0.0000000,0.0000000,0.0000000,0.0000202,0.0000000,0.0000000,0.0000040
78.9849510,1.0000501,,-0.9674634,-0.2529985,0.0000403,0.0025190,0.0071626,-0.0010493,-0.0027371,,,,1.0560272,-4.1295524,-10.7505894,0.0000000,0.0000000,0.0000000,0.0200010,0.0002028,0.0000000,0.0000000,0.0000203,0.0000000,0.0000000,0.0000000,0.0002028,0.0000000,0.0000000,0.0000203,0.0000000,0.0000000,0.0000000,0.0002028,0.0000000,0.0000000,0.0000203,0.0000203,0.0000000,0.0000000,0.0000040,0.0000000,0.0000000,0.0000000,0.0000203,0.0000000,0.0000000,0.0000040,0.0000000,0.0000000,0.0000000,0.0000203,0.0000000,0.0000000,0.0000040
79.0017340,,1.0000000,-0.9674634,-0.2529985,0.0000403,0.0025190,,,,0.0000000,0.0000000,0.0000000,1.0560272,-4.1295524,-10.7505894,0.0000000,0.0000000,0.0000000,0.1000000,0.0001988,0.0000000,0.0000000,0.0000199,0.0000000,0.0000000,0.0000000,0.0001988,0.0000000,0.0000000,0.0000199,0.0000000,0.0000000,0.0000000,0.0001988,0.0000000,0.0000000,0.0000199,0.0000199,0.0000000,0.0000000,0.0000040,0.0000000,0.0000000,0.0000000,0.0000199,0.0000000,0.0000000,0.0000040,0.0000000,0.0000000,0.0000000,0.0000199,0.0000000,0.0000000,0.0000040
79.0159010,1.0995500,,-0.9674634,-0.2529986,0.0000031,0.0024928,0.0058549,-0.0015623,0.0044908,,,,1.0560272,-4.1295524,-10.7505894,0.0000000,0.0000000,0.0000000,0.0219910,0.0001997,0.0000000,0.0000000,0.0000199,0.0000000,0.0000000,0.0000000,0.0001997,0.0000000,0.0000000,0.0000199,0.0000000,0.0000000,0.0000000,0.0001997,0.0000000,0.0000000,0.0000199,0.0000199,0.0000000,0.0000000,0.0000040,0.0000000,0.0000000,0.0000000,0.0000199,0.0000000,0.0000000,0.0000040,0.0000000,0.0000000,0.0000000,0.0000199,0.0000000,0.0000000,0.0000040
79.0285320,1.0999000,,-0.9674635,-0.2529987,-0.0000168,0.0024605,0.0010582,0.0005845,-0.0038581,,,,1.0560272,-4.1295524,-10.7505894,0.0000000,0.0000000,0.0000000,0.0219980,0.0002005,0.0000000,0.0000000,0.0000200,0.0000000,0.0000000,0.0000000,0.0002005,0.0000000,0.0000000,0.0000200,0.0000000,0.0000000,0.0000000,0.0002005,0.0000000,0.0000000,0.0000200,0.0000200,0.0000000,0.0000000,0.0000040,0.0000000,0.0000000,0.0000000,0.0000200,0.0000000,0.0000000,0.0000040,0.0000000,0.0000000,0.0000000,0.0000200,0.0000000,0.0000000,0.0000040
79.0496820,1.0501500,,-0.9674635,-0.2529987,-0.0000363,0.0024543,0.0035198,-0.0007682,-0.0011966,,,,1.0560272,-4.1295524,-10.7505894,0.0000000,0.0000000,0.0000000,0.0210030,0.0002014,0.0000000,0.0000000,0.0000201,0.0000000,0.0000000,0.0000000,0.0002014,0.0000000,0.0000000,0.0000201,0.0000000,0.0000000,0.0000000,0.0002014,0.0000000,0.0000000,0.0000201,0.0000201,0.0000000,0.0000000,0.0000040,0.0000000,0.0000000,0.0000000,0.0000201,0.0000000,0.0000000,0.0000040,0.0000000,0.0000000,0.0000000,0.0000201,0.0000000,0.0000000,0.0000040
79.0709260,1.0498999,,-0.9674634,-0.2529988,-0.0000627,0.0024729,0.0052008,-0.0089824,0.0011107,,,,1.0560272,-4.1295524,-10.7505894,0.0000000,0.0000000,0.0000000,0.0209980,0.0002022,0.0000000,0.0000000,0.0000202,0.0000000,0.0000000,0.0000000,0.0002022,0.0000000,0.0000000,0.0000202,0.0000000,0.0000000,0.0000000,0.0002022,0.0000000,0.0000000,0.0000202,0.0000202,0.0000000,0.0000000,0.0000040,0.0000000,0.0000000,0.0000000,0.0000202,0.0000000,0.0000000,0.0000040,0.0000000,0.0000000,0.0000000,0.0000202,0.0000000,0.0000000,0.0000040
79.0922510,1.0000000,,-0.9674634,-0.2529988,-0.0000710,0.0024704,-0.0044415,-0.0030950,-0.0035951,,,,1.0560272,-4.1295524,-10.7505894,0.0000000,0.0000000,0.0000000,0.0200000,0.0002030,0.0000000,0.0000000,0.0000203,0.0000000,0.0000000,0.0000000,0.0002030,0.0000000,0.0000000,0.0000203,0.0000000,0.0000000,0.0000000,0.0002030,0.0000000,0.0000000,0.0000203,0.0000203,0.0000000,0.0000000,0.0000040,0.0000000,0.0000000,0.0000000,0.0000203,0.0000000,0.0000000,0.0000040,0.0000000,0.0000000,0.0000000,0.0000203,0.0000000,0.0000000,0.0000040
79.1078150,,1.0200800,-0.9674634,-0.2529988,-0.0000710,0.0024691,,,,0.0000000,0.0000000,0.0000000,1.0560272,-4.1295524,-10.7505894,0.0000000,0.0000000,0.0000000,0.1020080,0.0001990,0.0000000,0.0000000,0.0000199,0.0000000,0.0000000,0.0000000,0.0001990,0.0000000,0.0000000,0.0000199,0.0000000,0.0000000,0.0000000,0.0001990,0.0000000,0.0000000,0.0000199,0.0000199,0.0000000,0.0000000,0.0000040,0.0000000,0.0000000,0.0000000,0.0000199,0.0000000,0.0000000,0.0000040,0.0000000,0.0000000,0.0000000,0.0000199,0.0000000,0.0000000,0.0000040
79.1212810,1.0003999,,-0.9674634,-0.2529988,-0.0001051,0.0024691,-0.0081030,-0.0021197,-0.0025299,,,,1.0560272,-4.1295524,-10.7505894,0.0000000,0.0000000,0.0000000,0.0200080,0.0001998,0.0000000,0.0000000,0.0000200,0.0000000,0.0000000,0.0000000,0.0001998,0.0000000,0.0000000,0.0000200,0.0000000,0.0000000,0.0000000,0.0001998,0.0000000,0.0000000,0.0000200,0.0000200,0.0000000,0.0000000,0.0000040,0.0000000,0.0000000,0.0000000,0.0000200,0.0000000,0.0000000,0.0000040,0.0000000,0.0000000,0.0000000,0.0000200,0.0000000,0.0000000,0.0000040
79.1346610,1.1996500,,-0.9674634,-0.2529988,-0.0001010,0.0024717,-0.0047687,-0.0001520,-0.0000443,,,,1.0560272,-4.1295524,-10.7505894,0.0000000,0.0000000,0.0000000,0.0239930,0.0002008,0.0000000,0.0000000,0.0000201,0.0000000,0.0000000,0.0000000,0.0002008,0.0000000,0.0000000,0.0000201,0.0000000,0.0000000,0.0000000,0.0002008,0.0000000,0.0000000,0.0000201,0.0000201,0.0000000,0.0000000,0.0000040,0.0000000,0.0000000,0.0000000,0.0000201,0.0000000,0.0000000,0.0000040,0.0000000,0.0000000,0.0000000,0.0000201,0.0000000,0.0000000,0.0000040
79.1547280,1.0002999,,-0.9674634,-0.2529988,-0.0001029,0.0024771,0.0005530,0.0008395,0.0055931,,,,1.0560272,-4.1295524,-10.7505894,0.0000000,0.0000000,0.0000000,0.0200060,0.0002016,0.0000000,0.0000000,0.0000201,0.0000000,0.0000000,0.0000000,0.0002016,0.0000000,0.0000000,0.0000201,0.0000000,0.0000000,0.0000000,0.0002016,0.0000000,0.0000000,0.0000201,0.0000201,0.0000000,0.0000000,0.0000040,0.0000000,0.0000000,0.0000000,0.0000201,0.0000000,0.0000000,0.0000040,0.0000000,0.0000000,0.0000000,0.0000201,0.0000000,0.0000000,0.0000040
79.1762060,1.0000501,,-0.9674633,-0.2529989,-0.0001243,0.0024973,-0.0007382,0.0006258,0.0113415,,,,1.0560272,-4.1295524,-10.7505894,0.0000000,0.0000000,0.0000000,0.0200010,0.0002024,0.0000000,0.0000000,0.0000202,0.0000000,0.0000000,0.0000000,0.0002024,0.0000000,0.0000000,0.0000202,0.0000000,0.0000000,0.0000000,0.0002024,0.0000000,0.0000000,0.0000202,0.0000202,0.0000000,0.0000000,0.0000040,0.0000000,0.0000000,0.0000000,0.0000202,0.0000000,0.0000000,0.0000040,0.0000000,0.0000000,0.0000000,0.0000202,0.0000000,0.0000000,0.0000040
79.1947950,0.9999500,,-0.9674634,-0.2529989,-0.0001292,0.0024918,-0.0057631,0.0024415,0.0100653,,,,1.0560272,-4.1295524,-10.7505894,0.0000000,0.0000000,0.0000000,0.0199990,0.0002032,0.0000000,0.0000000,0.0000203,0.0000000,0.0000000,0.0000000,0.0002032,0.0000000,0.0000000,0.0000203,0.0000000,0.0000000,0.0000000,0.0002032,0.0000000,0.0000000,0.0000203,0.0000203,0.0000000,0.0000000,0.0000040,0.0000000,0.0000000,0.0000000,0.0000203,0.0000000,0.0000000,0.0000040,0.0000000,0.0000000,0.0000000,0.0000203,0.0000000,0.0000000,0.0000040
79.2108170,,0.9999300,-0.9674634,-0.2529989,-0.0001292,0.0024918,,,,0.0000000,0.0000000,0.0000000,1.0560272,-4.1295524,-10.7505894,0.0000000,0.0000000,0.0000000,0.0999930,0.0001991,0.0000000,0.0000000,0.0000199,0.0000000,0.0000000,0.0000000,0.0001991,0.0000000,0.0000000,0.0000199,0.0000000,0.0000000,0.0000000,0.0001991,0.0000000,0.0000000,0.0000199,0.0000199,0.0000000,0.0000000,0.0000040,0.0000000,0.0000000,0.0000000,0.0000199,0.0000000,0.0000000,0.0000040,0.0000000,0.0000000,0.0000000,0.0000199,0.0000000,0.0000000,0.0000040
79.2244910,0.9997000,,-0.9674633,-0.2529989,-0.0001196,0.0025137,-0.0036292,0.0053559,0.0101596,,,,1.0560272,-4.1295524,-10.7505894,0.0000000,0.0000000,0.0000000,0.0199940,0.0001999,0.0000000,0.0000000,0.0000200,0.0000000,0.0000000,0.0000000,0.0001999,0.0000000,0.0000000,0.0000200,0.0000000,0.0000000,0.0000000,0.0001999,0.0000000,0.0000000,0.0000200,0.0000200,0.0000000,0.0000000,0.0000040,0.0000000,0.0000000,0.0000000,0.0000200,0.0000000,0.0000000,0.0000040,0.0000000,0.0000000,0.0000000,0.0000200,0.0000000,0.0000000,0.0000040
79.2375370,1.1500000,,-0.9674633,-0.2529988,-0.0001084,0.0025145,-0.0064457,-0.0039444,0.0016618,,,,1.0560272,-4.1295524,-10.7505894,0.0000000,0.0000000,0.0000000,0.0230000,0.0002008,0.0000000,0.0000000,0.0000201,0.0000000,0.0000000,0.0000000,0.0002008,0.0000000,0.0000000,0.0000201,0.0000000,0.0000000,0.0000000,0.0002008,0.0000000,0.0000000,0.0000201,0.0000201,0.0000000,0.0000000,0.0000040,0.0000000,0.0000000,0.0000000,0.0000201,0.0000000,0.0000000,0.0000040,0.0000000,0.0000000,0.0000000,0.0000201,0.0000000,0.0000000,0.0000040
79.2586750,1.0500500,,-0.9674634,-0.2529988,-0.0000849,0.0025119,-0.0092882,-0.0059013,0.0054696,,,,1.0560272,-4.1295524,-10.7505894,0.0000000,0.0000000,0.0000000,0.0210010,0.0002017,0.0000000,0.0000000,0.0000201,0.0000000,0.0000000,0.0000000,0.0002017,0.0000000,0.0000000,0.0000201,0.0000000,0.0000000,0.0000000,0.0002017,0.0000000,0.0000000,0.0000201,0.0000201,0.0000000,0.0000000,0.0000040,0.0000000,0.0000000,0.0000000,0.0000201,0.0000000,0.0000000,0.0000040,0.0000000,0.0000000,0.0000000,0.0000201,0.0000000,0.0000000,0.0000040
79.2812050,1.0504000,,-0.9674634,-0.2529987,-0.0000529,0.0024887,-0.0045525,-0.0069179,0.0049321,,,,1.0560272,-4.1295524,-10.7505894,0.0000000,0.0000000,0.0000000,0.0210080,0.0002025,0.0000000,0.0000000,0.0000202,0.0000000,0.0000000,0.0000000,0.0002025,0.0000000,0.0000000,0.0000202,0.0000000,0.0000000,0.0000000,0.0002025,0.0000000,0.0000000,0.0000202,0.0000202,0.0000000,0.0000000,0.0000040,0.0000000,0.0000000,0.0000000,0.0000202,0.0000000,0.0000000,0.0000040,0.0000000,0.0000000,0.0000000,0.0000202,0.0000000,0.0000000,0.0000040
79.3009660,,1.0000900,-0.9674635,-0.2529987,-0.0000274,0.0024598,,,,0.0000000,0.0000000,0.0000000,1.0560272,-4.1295524,-10.7505894,0.0000000,0.0000000,0.0000000,0.1000090,0.0001985,0.0000000,0.0000000,0.0000198,0.0000000,0.0000000,0.0000000,0.0001985,0.0000000,0.0000000,0.0000198,0.0000000,0.0000000,0.0000000,0.0001985,0.0000000,0.0000000,0.0000198,0.0000198,0.0000000,0.0000000,0.0000040,0.0000000,0.0000000,0.0000000,0.0000198,0.0000000,0.0000000,0.0000040,0.0000000,0.0000000,0.0000000,0.0000198,0.0000000,0.0000000,0.0000040
79.3154880,0.9997500,,-0.9674635,-0.2529987,-0.0000274,0.0024598,-0.0065487,0.0003634,-0.0031492,,,,1.0560272,-4.1295524,-10.7505894,0.0000000,0.0000000,0.0000000,0.0199950,0.0001993,0.0000000,0.0000000,0.0000199,0.0000000,0.0000000,0.0000000,0.0001993,0.0000000,0.0000000,0.0000199,0.0000000,0.0000000,0.0000000,0.0001993,0.0000000,0.0000000,0.0000199,0.0000199,0.0000000,0.0000000,0.0000040,0.0000000,0.0000000,0.0000000,0.0000199,0.0000000,0.0000000,0.0000040,0.0000000,0.0000000,0.0000000,0.0000199,0.0000000,0.0000000,0.0000040
79.3288950,1.4497501,,-0.9674636,-0.2529987,-0.0000250,0.0024400,-0.0051283,0.0042329,-0.0035277,,,,1.0560272,-4.1295524,-10.7505894,0.0000000,0.0000000,0.0000000,0.0289950,0.0002005,0.0000000,0.0000000,0.0000200,0.0000000,0.0000000,0.0000000,0.0002005,0.0000000,0.0000000,0.0000200,0.0000000,0.0000000,0.0000000,0.0002005,0.0000000,0.0000000,0.0000200,0.0000200,0.0000000,0.0000000,0.0000040,0.0000000,0.0000000,0.0000000,0.0000200,0.0000000,0.0000000,0.0000040,0.0000000,0.0000000,0.0000000,0.0000200,0.0000000,0.0000000,0.0000040
79.3489610,1.0003500,,-0.9674636,-0.2529987,-0.0000267,0.0024181,-0.0068595,-0.0016754,0.0001893,,,,1.0560272,-4.1295524,-10.7505894,0.0000000,0.0000000,0.0000000,0.0200070,0.0002013,0.0000000,0.0000000,0.0000201,0.0000000,0.0000000,0.0000000,0.0002013,0.0000000,0.0000000,0.0000201,0.0000000,0.0000000,0.0000000,0.0002013,0.0000000,0.0000000,0.0000201,0.0000201,0.0000000,0.0000000,0.0000040,0.0000000,0.0000000,0.0000000,0.0000201,0.0000000,0.0000000,0.0000040,0.0000000,0.0000000,0.0000000,0.0000201,0.0000000,0.0000000,0.0000040
79.3686370,0.9998000,,-0.9674636,-0.2529987,-0.0000185,0.0024158,-0.0111278,-0.0028976,-0.0011261,,,,1.0560272,-4.1295524,-10.7505894,0.0000000,0.0000000,0.0000000,0.0199960,0.0002021,0.0000000,0.0000000,0.0000202,0.0000000,0.0000000,0.0000000,0.0002021,0.0000000,0.0000000,0.0000202,0.0000000,0.0000000,0.0000000,0.0002021,0.0000000,0.0000000,0.0000202,0.0000202,0.0000000,0.0000000,0.0000040,0.0000000,0.0000000,0.0000000,0.0000202,0.0000000,0.0000000,0.0000040,0.0000000,0.0000000,0.0000000,0.0000202,0.0000000,0.0000000,0.0000040
79.3885350,0.9999500,,-0.9674636,-0.2529987,0.0000019,0.0024140,-0.0049307,-0.0049660,0.0001694,,,,1.0560272,-4.1295524,-10.7505894,0.0000000,0.0000000,0.0000000,0.0199990,0.0002029,0.0000000,0.0000000,0.0000203,0.0000000,0.0000000,0.0000000,0.0002029,0.0000000,0.0000000,0.0000203,0.0000000,0.0000000,0.0000000,0.0002029,0.0000000,0.0000000,0.0000203,0.0000203,0.0000000,0.0000000,0.0000040,0.0000000,0.0000000,0.0000000,0.0000203,0.0000000,0.0000000,0.0000040,0.0000000,0.0000000,0.0000000,0.0000203,0.0000000,0.0000000,0.0000040
79.4050940,,1.0199100,-0.9674636,-0.2529987,0.0000019,0.0024140,,,,0.0000000,0.0000000,0.0000000,1.0560272,-4.1295524,-10.7505894,0.0000000,0.0000000,0.0000000,0.1019910,0.0001988,0.0000000,0.0000000,0.0000199,0.0000000,0.0000000,0.0000000,0.0001988,0.0000000,0.0000000,0.0000199,0.0000000,0.0000000,0.0000000,0.0001988,0.0000000,0.0000000,0.0000199,0.0000199,0.0000000,0.0000000,0.0000040,0.0000000,0.0000000,0.0000000,0.0000199,0.0000000,0.0000000,0.0000040,0.0000000,0.0000000,0.0000000,0.0000199,0.0000000,0.0000000,0.0000040
79.4187880,1.1005000,,-0.9674636,-0.2529986,0.0000171,0.0024184,-0.0020686,-0.0023228,0.0042351,,,,1.0560272,-4.1295524,-10.7505894,0.0000000,0.0000000,0.0000000,0.0220100,0.0001997,0.0000000,0.0000000,0.0000199,0.0000000,0.0000000,0.0000000,0.0001997,0.0000000,0.0000000,0.0000199,0.0000000,0.0000000,0.0000000,0.0001997,0.0000000,0.0000000,0.0000199,0.0000199,0.0000000,0.0000000,0.0000040,0.0000000,0.0000000,0.0000000,0.0000199,0.0000000,0.0000000,0.0000040,0.0000000,0.0000000,0.0000000,0.0000199,0.0000000,0.0000000,0.0000040
79.4319300,1.0494001,,-0.9674636,-0.2529987,-0.0000071,0.0024267,-0.0021635,-0.0024736,0.0087093,,,,1.0560272,-4.1295524,-10.7505894,0.0000000,0.0000000,0.0000000,0.0209880,0.0002005,0.0000000,0.0000000,0.0000200,0.0000000,0.0000000,0.0000000,0.0002005,0.0000000,0.0000000,0.0000200,0.0000000,0.0000000,0.0000000,0.0002005,0.0000000,0.0000000,0.0000200,0.0000200,0.0000000,0.0000000,0.0000040,0.0000000,0.0000000,0.0000000,0.0000200,0.0000000,0.0000000,0.0000040,0.0000000,0.0000000,0.0000000,0.0000200,0.0000000,0.0000000,0.0000040
79.4517060,1.0004500,,-0.9674636,-0.2529987,-0.0000357,0.0024291,-0.0046828,-0.0006036,0.0070402,,,,1.0560272,-4.1295524,-10.7505894,0.0000000,0.0000000,0.0000000,0.0200090,0.0002013,0.0000000,0.0000000,0.0000201,0.0000000,0.0000000,0.0000000,0.0002013,0.0000000,0.0000000,0.0000201,0.0000000,0.0000000,0.0000000,0.0002013,0.0000000,0.0000000,0.0000201,0.0000201,0.0000000,0.0000000,0.0000040,0.0000000,0.0000000,0.0000000,0.0000201,0.0000000,0.0000000,0.0000040,0.0000000,0.0000000,0.0000000,0.0000201,0.0000000,0.0000000,0.0000040
79.4725640,1.0496000,,-0.9674636,-0.2529987,-0.0000346,0.0024304,-0.0037147,0.0054660,0.0074264,,,,1.0560272,-4.1295524,-10.7505894,0.0000000,0.0000000,0.0000000,0.0209920,0.0002022,0.0000000,0.0000000,0.0000202,0.0000000,0.0000000,0.0000000,0.0002022,0.0000000,0.0000000,0.0000202,0.0000000,0.0000000,0.0000000,0.0002022,0.0000000,0.0000000,0.0000202,0.0000202,0.0000000,0.0000000,0.0000040,0.0000000,0.0000000,0.0000000,0.0000202,0.0000000,0.0000000,0.0000040,0.0000000,0.0000000,0.0000000,0.0000202,0.0000000,0.0000000,0.0000040
79.4939590,1.0506999,,-0.9674636,-0.2529987,-0.0000032,0.0024299,-0.0043903,0.0014284,0.0061546,,,,1.0560272,-4.1295524,-10.7505894,0.0000000,0.0000000,0.0000000,0.0210140,0.0002030,0.0000000,0.0000000,0.0000203,0.0000000,0.0000000,0.0000000,0.0002030,0.0000000,0.0000000,0.0000203,0.0000000,0.0000000,0.0000000,0.0002030,0.0000000,0.0000000,0.0000203,0.0000203,0.0000000,0.0000000,0.0000040,0.0000000,0.0000000,0.0000000,0.0000203,0.0000000,0.0000000,0.0000040,0.0000000,0.0000000,0.0000000,0.0000203,0.0000000,0.0000000,0.0000040
79.5086770,,1.0200601,-0.9674636,-0.2529987,-0.0000032,0.0024299,,,,0.0000000,0.0000000,0.0000000,1.0560272,-4.1295524,-10.7505894,0.0000000,0.0000000,0.0000000,0.1020060,0.0001990,0.0000000,0.0000000,0.0000199,0.0000000,0.0000000,0.0000000,0.0001990,0.0000000,0.0000000,0.0000199,0.0000000,0.0000000,0.0000000,0.0001990,0.0000000,0.0000000,0.0000199,0.0000199,0.0000000,0.0000000,0.0000040,0.0000000,0.0000000,0.0000000,0.0000199,0.0000000,0.0000000,0.0000040,0.0000000,0.0000000,0.0000000,0.0000199,0.0000000,0.0000000,0.0000040
79.5222600,0.9996000,,-0.9674636,-0.2529986,0.0000140,0.0024327,-0.0025308,0.0025910,0.0047863,,,,1.0560272,-4.1295524,-10.7505894,0.0000000,0.0000000,0.0000000,0.0199920,0.0001998,0.0000000,0.0000000,0.0000200,0.0000000,0.0000000,0.0000000,0.0001998,0.0000000,0.0000000,0.0000200,0.0000000,0.0000000,0.0000000,0.0001998,0.0000000,0.0000000,0.0000200,0.0000200,0.0000000,0.0000000,0.0000040,0.0000000,0.0000000,0.0000000,0.0000200,0.0000000,0.0000000,0.0000040,0.0000000,0.0000000,0.0000000,0.0000200,0.0000000,0.0000000,0.0000040
79.5357840,1.0995500,,-0.9674636,-0.2529986,0.0000318,0.0024530,-0.0023259,0.0024857,0.0058111,,,,1.0560272,-4.1295524,-10.7505894,0.0000000,0.0000000,0.0000000,0.0219910,0.0002007,0.0000000,0.0000000,0.0000200,0.0000000,0.0000000,0.0000000,0.0002007,0.0000000,0.0000000,0.0000200,0.0000000,0.0000000,0.0000000,0.0002007,0.0000000,0.0000000,0.0000200,0.0000200,0.0000000,0.0000000,0.0000040,0.0000000,0.0000000,0.0000000,0.0000200,0.0000000,0.0000000,0.0000040,0.0000000,0.0000000,0.0000000,0.0000200,0.0000000,0.0000000,0.0000040
79.5557460,1.0005001,,-0.9674635,-0.2529985,0.0000553,0.0024674,-0.0041537,0.0014717,0.0002200,,,,1.0560272,-4.1295524,-10.7505894,0.0000000,0.0000000,0.0000000,0.0200100,0.0002015,0.0000000,0.0000000,0.0000201,0.0000000,0.0000000,0.0000000,0.0002015,0.0000000,0.0000000,0.0000201,0.0000000,0.0000000,0.0000000,0.0002015,0.0000000,0.0000000,0.0000201,0.0000201,0.0000000,0.0000000,0.0000040,0.0000000,0.0000000,0.0000000,0.0000201,0.0000000,0.0000000,0.0000040,0.0000000,0.0000000,0.0000000,0.0000201,0.0000000,0.0000000,0.0000040
79.5755190,0.9996000,,-0.9674635,-0.2529984,0.0000943,0.0024688,-0.0067231,-0.0000118,0.0035280,,,,1.0560272,-4.1295524,-10.7505894,0.0000000,0.0000000,0.0000000,0.0199920,0.0002023,0.0000000,0.0000000,0.0000202,0.0000000,0.0000000,0.0000000,0.0002023,0.0000000,0.0000000,0.0000202,0.0000000,0.0000000,0.0000000,0.0002023,0.0000000,0.0000000,0.0000202,0.0000202,0.0000000,0.0000000,0.0000040,0.0000000,0.0000000,0.0000000,0.0000202,0.0000000,0.0000000,0.0000040,0.0000000,0.0000000,0.0000000,0.0000202,0.0000000,0.0000000,0.0000040
79.5966580,1.0501001,,-0.9674636,-0.2529983,0.0001350,0.0024562,-0.0062455,0.0021608,-0.0011657,,,,1.0560272,-4.1295524,-10.7505894,0.0000000,0.0000000,0.0000000,0.0210020,0.0002031,0.0000000,0.0000000,0.0000203,0.0000000,0.0000000,0.0000000,0.0002031,0.0000000,0.0000000,0.0000203,0.0000000,0.0000000,0.0000000,0.0002031,0.0000000,0.0000000,0.0000203,0.0000203,0.0000000,0.0000000,0.0000040,0.0000000,0.0000000,0.0000000,0.0000203,0.0000000,0.0000000,0.0000040,0.0000000,0.0000000,0.0000000,0.0000203,0.0000000,0.0000000,0.0000040
79.6126730,,0.9999400,-0.9674636,-0.2529983,0.0001350,0.0024562,,,,0.0000000,0.0000000,0.0000000,1.0560272,-4.1295524,-10.7505894,0.0000000,0.0000000,0.0000000,0.0999940,0.0001991,0.0000000,0.0000000,0.0000199,0.0000000,0.0000000,0.0000000,0.0001991,0.0000000,0.0000000,0.0000199,0.0000000,0.0000000,0.0000000,0.0001991,0.0000000,0.0000000,0.0000199,0.0000199,0.0000000,0.0000000,0.0000040,0.0000000,0.0000000,0.0000000,0.0000199,0.0000000,0.0000000,0.0000040,0.0000000,0.0000000,0.0000000,0.0000199,0.0000000,0.0000000,0.0000040
79.6262660,1.1006001,,-0.9674636,-0.2529983,0.0001447,0.0024505,-0.0006584,0.0017823,0.0050324,,,,1.0560272,-4.1295524,-10.7505894,0.0000000,0.0000000,0.0000000,0.0220120,0.0002000,0.0000000,0.0000000,0.0000200,0.0000000,0.0000000,0.0000000,0.0002000,0.0000000,0.0000000,0.0000200,0.0000000,0.0000000,0.0000000,0.0002000,0.0000000,0.0000000,0.0000200,0.0000200,0.0000000,0.0000000,0.0000040,0.0000000,0.0000000,0.0000000,0.0000200,0.0000000,0.0000000,0.0000040,0.0000000,0.0000000,0.0000000,0.0000200,0.0000000,0.0000000,0.0000040
79.6397050,1.0497000,,-0.9674636,-0.2529983,0.0001582,0.0024345,0.0026462,0.0025467,0.0008072,,,,1.0560272,-4.1295524,-10.7505894,0.0000000,0.0000000,0.0000000,0.0209940,0.0002008,0.0000000,0.0000000,0.0000201,0.0000000,0.0000000,0.0000000,0.0002008,0.0000000,0.0000000,0.0000201,0.0000000,0.0000000,0.0000000,0.0002008,0.0000000,0.0000000,0.0000201,0.0000201,0.0000000,0.0000000,0.0000040,0.0000000,0.0000000,0.0000000,0.0000201,0.0000000,0.0000000,0.0000040,0.0000000,0.0000000,0.0000000,0.0000201,0.0000000,0.0000000,0.0000040
79.6595140,1.0002501,,-0.9674637,-0.2529983,0.0001690,0.0024220,0.0030855,0.0019448,0.0033333,,,,1.0560272,-4.1295524,-10.7505894,0.0000000,0.0000000,0.0000000,0.0200050,0.0002016,0.0000000,0.0000000,0.0000201,0.0000000,0.0000000,0.0000000,0.0002016,0.0000000,0.0000000,0.0000201,0.0000000,0.0000000,0.0000000,0.0002016,0.0000000,0.0000000,0.0000201,0.0000201,0.0000000,0.0000000,0.0000040,0.0000000,0.0000000,0.0000000,0.0000201,0.0000000,0.0000000,0.0000040,0.0000000,0.0000000,0.0000000,0.0000201,0.0000000,0.0000000,0.0000040
79.6795570,0.9995500,,-0.9674637,-0.2529983,0.0001583,0.0024157,0.0037629,-0.0027584,-0.0054134,,,,1.0560272,-4.1295524,-10.7505894,0.0000000,0.0000000,0.0000000,0.0199910,0.0002024,0.0000000,0.0000000,0.0000202,0.0000000,0.0000000,0.0000000,0.0002024,0.0000000,0.0000000,0.0000202,0.0000000,0.0000000,0.0000000,0.0002024,0.0000000,0.0000000,0.0000202,0.0000202,0.0000000,0.0000000,0.0000040,0.0000000,0.0000000,0.0000000,0.0000202,0.0000000,0.0000000,0.0000040,0.0000000,0.0000000,0.0000000,0.0000202,0.0000000,0.0000000,0.0000040
79.7005170,1.0499500,,-0.9674637,-0.2529984,0.0001445,0.0024051,0.0018967,-0.0014708,-0.0051481,,,,1.0560272,-4.1295524,-10.7505894,0.0000000,0.0000000,0.0000000,0.0209990,0.0002033,0.0000000,0.0000000,0.0000203,0.0000000,0.0000000,0.0000000,0.0002033,0.0000000,0.0000000,0.0000203,0.0000000,0.0000000,0.0000000,0.0002033,0.0000000,0.0000000,0.0000203,0.0000203,0.0000000,0.0000000,0.0000040,0.0000000,0.0000000,0.0000000,0.0000203,0.0000000,0.0000000,0.0000040,0.0000000,0.0000000,0.0000000,0.0000203,0.0000000,0.0000000,0.0000040
79.7165250,,1.0200700,-0.9674637,-0.2529984,0.0001445,0.0024051,,,,0.0000000,0.0000000,0.0000000,1.0560272,-4.1295524,-10.7505894,0.0000000,0.0000000,0.0000000,0.1020070,0.0001992,0.0000000,0.0000000,0.0000199,0.0000000,0.0000000,0.0000000,0.0001992,0.0000000,0.0000000,0.0000199,0.0000000,0.0000000,0.0000000,0.0001992,0.0000000,0.0000000,0.0000199,0.0000199,0.0000000,0.0000000,0.0000040,0.0000000,0.0000000,0.0000000,0.0000199,0.0000000,0.0000000,0.0000040,0.0000000,0.0000000,0.0000000,0.0000199,0.0000000,0.0000000,0.0000040
79.7301560,1.0998499,,-0.9674637,-0.2529984,0.0001351,0.0023926,0.0026726,0.0018434,-0.0037948,,,,1.0560272,-4.1295524,-10.7505894,0.0000000,0.0000000,0.0000000,0.0219970,0.0002001,0.0000000,0.0000000,0.0000200,0.0000000,0.0000000,0.0000000,0.0002001,0.0000000,0.0000000,0.0000200,0.0000000,0.0000000,0.0000000,0.0002001,0.0000000,0.0000000,0.0000200,0.0000200,0.0000000,0.0000000,0.0000040,0.0000000,0.0000000,0.0000000,0.0000200,0.0000000,0.0000000,0.0000040,0.0000000,0.0000000,0.0000000,0.0000200,0.0000000,0.0000000,0.0000040
79.7439130,1.0503000,,-0.9674637,-0.2529984,0.0001197,0.0023820,-0.0003803,-0.0033432,-0.0036064,,,,1.0560272,-4.1295524,-10.7505894,0.0000000,0.0000000,0.0000000,0.0210060,0.0002009,0.0000000,0.0000000,0.0000201,0.0000000,0.0000000,0.0000000,0.0002009,0.0000000,0.0000000,0.0000201,0.0000000,0.0000000,0.0000000,0.0002009,0.0000000,0.0000000,0.0000201,0.0000201,0.0000000,0.0000000,0.0000040,0.0000000,0.0000000,0.0000000,0.0000201,0.0000000,0.0000000,0.0000040,0.0000000,0.0000000,0.0000000,0.0000201,0.0000000,0.0000000,0.0000040
79.7635750,1.0002999,,-0.9674636,-0.2529984,0.0001054,0.0024165,0.0075842,-0.0014732,-0.0022915,,,,1.0560272,-4.1295524,-10.7505894,0.0000000,0.0000000,0.0000000,0.0200060,0.0002017,0.0000000,0.0000000,0.0000202,0.0000000,0.0000000,0.0000000,0.0002017,0.0000000,0.0000000,0.0000202,0.0000000,0.0000000,0.0000000,0.0002017,0.0000000,0.0000000,0.0000202,0.0000202,0.0000000,0.0000000,0.0000040,0.0000000,0.0000000,0.0000000,0.0000202,0.0000000,0.0000000,0.0000040,0.0000000,0.0000000,0.0000000,0.0000202,0.0000000,0.0000000,0.0000040
79.7845990,1.0495000,,-0.9674635,-0.2529985,0.0000821,0.0024539,0.0085910,-0.0049023,0.0037371,,,,1.0560272,-4.1295524,-10.7505894,0.0000000,0.0000000,0.0000000,0.0209900,0.0002026,0.0000000,0.0000000,0.0000202,0.0000000,0.0000000,0.0000000,0.0002026,0.0000000,0.0000000,0.0000202,0.0000000,0.0000000,0.0000000,0.0002026,0.0000000,0.0000000,0.0000202,0.0000202,0.0000000,0.0000000,0.0000040,0.0000000,0.0000000,0.0000000,0.0000202,0.0000000,0.0000000,0.0000040,0.0000000,0.0000000,0.0000000,0.0000202,0.0000000,0.0000000,0.0000040
79.8093020,,1.0099200,-0.9674635,-0.2529985,0.0000835,0.0024839,,,,0.0000000,0.0000000,0.0000000,1.0560272,-4.1295524,-10.7505894,0.0000000,0.0000000,0.0000000,0.1009920,0.0001985,0.0000000,0.0000000,0.0000198,0.0000000,0.0000000,0.0000000,0.0001985,0.0000000,0.0000000,0.0000198,0.0000000,0.0000000,0.0000000,0.0001985,0.0000000,0.0000000,0.0000198,0.0000198,0.0000000,0.0000000,0.0000040,0.0000000,0.0000000,0.0000000,0.0000198,0.0000000,0.0000000,0.0000040,0.0000000,0.0000000,0.0000000,0.0000198,0.0000000,0.0000000,0.0000040
79.8225710,1.1001501,,-0.9674635,-0.2529985,0.0000835,0.0024839,0.0064317,0.0017145,0.0062631,,,,1.0560272,-4.1295524,-10.7505894,0.0000000,0.0000000,0.0000000,0.0220030,0.0001994,0.0000000,0.0000000,0.0000199,0.0000000,0.0000000,0.0000000,0.0001994,0.0000000,0.0000000,0.0000199,0.0000000,0.0000000,0.0000000,0.0001994,0.0000000,0.0000000,0.0000199,0.0000199,0.0000000,0.0000000,0.0000040,0.0000000,0.0000000,0.0000000,0.0000199,0.0000000,0.0000000,0.0000040,0.0000000,0.0000000,0.0000000,0.0000199,0.0000000,0.0000000,0.0000040
79.8370570,1.4497000,,-0.9674634,-0.2529985,0.0000674,0.0025127,0.0031167,0.0013761,0.0070378,,,,1.0560272,-4.1295524,-10.7505894,0.0000000,0.0000000,0.0000000,0.0289940,0.0002006,0.0000000,0.0000000,0.0000200,0.0000000,0.0000000,0.0000000,0.0002006,0.0000000,0.0000000,0.0000200,0.0000000,0.0000000,0.0000000,0.0002006,0.0000000,0.0000000,0.0000200,0.0000200,0.0000000,0.0000000,0.0000040,0.0000000,0.0000000,0.0000000,0.0000200,0.0000000,0.0000000,0.0000040,0.0000000,0.0000000,0.0000000,0.0000200,0.0000000,0.0000000,0.0000040
79.8557960,1.0000501,,-0.9674634,-0.2529985,0.0000752,0.0025281,-0.0004634,-0.0012193,0.0064486,,,,1.0560272,-4.1295524,-10.7505894,0.0000000,0.0000000,0.0000000,0.0200010,0.0002014,0.0000000,0.0000000,0.0000201,0.0000000,0.0000000,0.0000000,0.0002014,0.0000000,0.0000000,0.0000201,0.0000000,0.0000000,0.0000000,0.0002014,0.0000000,0.0000000,0.0000201,0.0000201,0.0000000,0.0000000,0.0000040,0.0000000,0.0000000,0.0000000,0.0000201,0.0000000,0.0000000,0.0000040,0.0000000,0.0000000,0.0000000,0.0000201,0.0000000,0.0000000,0.0000040
79.8757710,1.0000000,,-0.9674634,-0.2529985,0.0000661,0.0025353,0.0004015,-0.0071633,0.0039567,,,,1.0560272,-4.1295524,-10.7505894,0.0000000,0.0000000,0.0000000,0.0200000,0.0002022,0.0000000,0.0000000,0.0000202,0.0000000,0.0000000,0.0000000,0.0002022,0.0000000,0.0000000,0.0000202,0.0000000,0.0000000,0.0000000,0.0002022,0.0000000,0.0000000,0.0000202,0.0000202,0.0000000,0.0000000,0.0000040,0.0000000,0.0000000,0.0000000,0.0000202,0.0000000,0.0000000,0.0000040,0.0000000,0.0000000,0.0000000,0.0000202,0.0000000,0.0000000,0.0000040
79.8957670,1.0006500,,-0.9674634,-0.2529985,0.0000629,0.0025290,-0.0006232,-0.0064961,0.0051522,,,,1.0560272,-4.1295524,-10.7505894,0.0000000,0.0000000,0.0000000,0.0200130,0.0002030,0.0000000,0.0000000,0.0000203,0.0000000,0.0000000,0.0000000,0.0002030,0.0000000,0.0000000,0.0000203,0.0000000,0.0000000,0.0000000,0.0002030,0.0000000,0.0000000,0.0000203,0.0000203,0.0000000,0.0000000,0.0000040,0.0000000,0.0000000,0.0000000,0.0000203,0.0000000,0.0000000,0.0000040,0.0000000,0.0000000,0.0000000,0.0000203,0.0000000,0.0000000,0.0000040
79.9121470,,1.0000100,-0.9674634,-0.2529985,0.0000629,0.0025290,,,,0.0000000,0.0000000,0.0000000,1.0560272,-4.1295524,-10.7505894,0.0000000,0.0000000,0.0000000,0.1000010,0.0001990,0.0000000,0.0000000,0.0000199,0.0000000,0.0000000,0.0000000,0.0001990,0.0000000,0.0000000,0.0000199,0.0000000,0.0000000,0.0000000,0.0001990,0.0000000,0.0000000,0.0000199,0.0000199,0.0000000,0.0000000,0.0000040,0.0000000,0.0000000,0.0000000,0.0000199,0.0000000,0.0000000,0.0000040,0.0000000,0.0000000,0.0000000,0.0000199,0.0000000,0.0000000,0.0000040
79.9254820,1.0996500,,-0.9674634,-0.2529986,0.0000339,0.0025164,0.0022366,-0.0025309,0.0077030,,,,1.0560272,-4.1295524,-10.7505894,0.0000000,0.0000000,0.0000000,0.0219930,0.0001998,0.0000000,0.0000000,0.0000200,0.0000000,0.0000000,0.0000000,0.0001998,0.0000000,0.0000000,0.0000200,0.0000000,0.0000000,0.0000000,0.0001998,0.0000000,0.0000000,0.0000200,0.0000200,0.0000000,0.0000000,0.0000040,0.0000000,0.0000000,0.0000000,0.0000200,0.0000000,0.0000000,0.0000040,0.0000000,0.0000000,0.0000000,0.0000200,0.0000000,0.0000000,0.0000040
79.9386990,1.0501500,,-0.9674634,-0.2529985,0.0000495,0.0025094,-0.0035967,0.0048381,0.0016543,,,,1.0560272,-4.1295524,-10.7505894,0.0000000,0.0000000,0.0000000,0.0210030,0.0002007,0.0000000,0.0000000,0.0000200,0.0000000,0.0000000,0.0000000,0.0002007,0.0000000,0.0000000,0.0000200,0.0000000,0.0000000,0.0000000,0.0002007,0.0000000,0.0000000,0.0000200,0.0000200,0.0000000,0.0000000,0.0000040,0.0000000,0.0000000,0.0000000,0.0000200,0.0000000,0.0000000,0.0000040,0.0000000,0.0000000,0.0000000,0.0000200,0.0000000,0.0000000,0.0000040
79.9588650,1.0000000,,-0.9674634,-0.2529986,0.0000401,0.0024957,0.0002921,0.0001913,0.0025361,,,,1.0560272,-4.1295524,-10.7505894,0.0000000,0.0000000,0.0000000,0.0200000,0.0002015,0.0000000,0.0000000,0.0000201,0.0000000,0.0000000,0.0000000,0.0002015,0.0000000,0.0000000,0.0000201,0.0000000,0.0000000,0.0000000,0.0002015,0.0000000,0.0000000,0.0000201,0.0000201,0.0000000,0.0000000,0.0000040,0.0000000,0.0000000,0.0000000,0.0000201,0.0000000,0.0000000,0.0000040,0.0000000,0.0000000,0.0000000,0.0000201,0.0000000,0.0000000,0.0000040
79.9801170,0.9999000,,-0.9674635,-0.2529986,0.0000324,0.0024690,0.0005352,0.0061305,0.0061509,,,,1.0560272,-4.1295524,-10.7505894,0.0000000,0.0000000,0.0000000,0.0199980,0.0002023,0.0000000,0.0000000,0.0000202,0.0000000,0.0000000,0.0000000,0.0002023,0.0000000,0.0000000,0.0000202,0.0000000,0.0000000,0.0000000,0.0002023,0.0000000,0.0000000,0.0000202,0.0000202,0.0000000,0.0000000,0.0000040,0.0000000,0.0000000,0.0000000,0.0000202,0.0000000,0.0000000,0.0000040,0.0000000,0.0000000,0.0000000,0.0000202,0.0000000,0.0000000,0.0000040
79.9988570,0.9997000,,-0.9674635,-0.2529985,0.0000637,0.0024721,0.0026632,-0.0035418,-0.0022957,,,,1.0560272,-4.1295524,-10.7505894,0.0000000,0.0000000,0.0000000,0.0199940,0.0002031,0.0000000,0.0000000,0.0000203,0.0000000,0.0000000,0.0000000,0.0002031,0.0000000,0.0000000,0.0000203,0.0000000,0.0000000,0.0000000,0.0002031,0.0000000,0.0000000,0.0000203,0.0000203,0.0000000,0.0000000,0.0000040,0.0000000,0.0000000,0.0000000,0.0000203,0.0000000,0.0000000,0.0000040,0.0000000,0.0000000,0.0000000,0.0000203,0.0000000,0.0000000,0.0000040
80.0146590,,1.0200700,-0.9674635,-0.2529985,0.0000637,0.0024691,,,,0.0000000,0.0000000,0.0000000,1.0560272,-4.1295524,-10.7505894,0.0000000,0.0000000,0.0000000,0.1020070,0.0001990,0.0000000,0.0000000,0.0000199,0.0000000,0.0000000,0.0000000,0.0001990,0.0000000,0.0000000,0.0000199,0.0000000,0.0000000,0.0000000,0.0001990,0.0000000,0.0000000,0.0000199,0.0000199,0.0000000,0.0000000,0.0000040,0.0000000,0.0000000,0.0000000,0.0000199,0.0000000,0.0000000,0.0000040,0.0000000,0.0000000,0.0000000,0.0000199,0.0000000,0.0000000,0.0000040
80.0285760,1.0004500,,-0.9674635,-0.2529985,0.0000832,0.0024691,-0.0001638,-0.0000848,-0.0028568,,,,1.0560272,-4.1295524,-10.7505894,0.0000000,0.0000000,0.0000000,0.0200090,0.0001998,0.0000000,0.0000000,0.0000200,0.0000000,0.0000000,0.0000000,0.0001998,0.0000000,0.0000000,0.0000200,0.0000000,0.0000000,0.0000000,0.0001998,0.0000000,0.0000000,0.0000200,0.0000200,0.0000000,0.0000000,0.0000040,0.0000000,0.0000000,0.0000000,0.0000200,0.0000000,0.0000000,0.0000040,0.0000000,0.0000000,0.0000000,0.0000200,0.0000000,0.0000000,0.0000040
80.0414040,1.1494499,,-0.9674634,-0.2529986,0.0000505,0.0024898,0.0063802,0.0028797,0.0058958,,,,1.0560272,-4.1295524,-10.7505894,0.0000000,0.0000000,0.0000000,0.0229890,0.0002007,0.0000000,0.0000000,0.0000201,0.0000000,0.0000000,0.0000000,0.0002007,0.0000000,0.0000000,0.0000201,0.0000000,0.0000000,0.0000000,0.0002007,0.0000000,0.0000000,0.0000201,0.0000201,0.0000000,0.0000000,0.0000040,0.0000000,0.0000000,0.0000000,0.0000201,0.0000000,0.0000000,0.0000040,0.0000000,0.0000000,0.0000000,0.0000201,0.0000000,0.0000000,0.0000040
80.0627120,1.0505000,,-0.9674634,-0.2529986,0.0000377,0.0025033,0.0038005,0.0031488,0.0007506,,,,1.0560272,-4.1295524,-10.7505894,0.0000000,0.0000000,0.0000000,0.0210100,0.0002016,0.0000000,0.0000000,0.0000201,0.0000000,0.0000000,0.0000000,0.0002016,0.0000000,0.0000000,0.0000201,0.0000000,0.0000000,0.0000000,0.0002016,0.0000000,0.0000000,0.0000201,0.0000201,0.0000000,0.0000000,0.0000040,0.0000000,0.0000000,0.0000000,0.0000201,0.0000000,0.0000000,0.0000040,0.0000000,0.0000000,0.0000000,0.0000201,0.0000000,0.0000000,0.0000040
80.0828460,0.9995500,,-0.9674634,-0.2529986,0.0000496,0.0025109,0.0030370,0.0057401,-0.0020661,,,,1.0560272,-4.1295524,-10.7505894,0.0000000,0.0000000,0.0000000,0.0199910,0.0002024,0.0000000,0.0000000,0.0000202,0.0000000,0.0000000,0.0000000,0.0002024,0.0000000,0.0000000,0.0000202,0.0000000,0.0000000,0.0000000,0.0002024,0.0000000,0.0000000,0.0000202,0.0000202,0.0000000,0.0000000,0.0000040,0.0000000,0.0000000,0.0000000,0.0000202,0.0000000,0.0000000,0.0000040,0.0000000,0.0000000,0.0000000,0.0000202,0.0000000,0.0000000,0.0000040
80.1038620,1.0502001,,-0.9674634,-0.2529985,0.0000612,0.0025105,-0.0009992,0.0023894,0.0065353,,,,1.0560272,-4.1295524,-10.7505894,0.0000000,0.0000000,0.0000000,0.0210040,0.0002032,0.0000000,0.0000000,0.0000203,0.0000000,0.0000000,0.0000000,0.0002032,0.0000000,0.0000000,0.0000203,0.0000000,0.0000000,0.0000000,0.0002032,0.0000000,0.0000000,0.0000203,0.0000203,0.0000000,0.0000000,0.0000040,0.0000000,0.0000000,0.0000000,0.0000203,0.0000000,0.0000000,0.0000040,0.0000000,0.0000000,0.0000000,0.0000203,0.0000000,0.0000000,0.0000040
80.1197900,,1.0199300,-0.9674634,-0.2529985,0.0000612,0.0025215,,,,0.0000000,0.0000000,0.0000000,1.0560272,-4.1295524,-10.7505894,0.0000000,0.0000000,0.0000000,0.1019930,0.0001992,0.0000000,0.0000000,0.0000199,0.0000000,0.0000000,0.0000000,0.0001992,0.0000000,0.0000000,0.0000199,0.0000000,0.0000000,0.0000000,0.0001992,0.0000000,0.0000000,0.0000199,0.0000199,0.0000000,0.0000000,0.0000040,0.0000000,0.0000000,0.0000000,0.0000199,0.0000000,0.0000000,0.0000040,0.0000000,0.0000000,0.0000000,0.0000199,0.0000000,0.0000000,0.0000040
80.1337410,1.0005001,,-0.9674634,-0.2529985,0.0000660,0.0025215,0.0040552,-0.0021928,0.0037559,,,,1.0560272,-4.1295524,-10.7505894,0.0000000,0.0000000,0.0000000,0.0200100,0.0002000,0.0000000,0.0000000,0.0000200,0.0000000,0.0000000,0.0000000,0.0002000,0.0000000,0.0000000,0.0000200,0.0000000,0.0000000,0.0000000,0.0002000,0.0000000,0.0000000,0.0000200,0.0000200,0.0000000,0.0000000,0.0000040,0.0000000,0.0000000,0.0000000,0.0000200,0.0000000,0.0000000,0.0000040,0.0000000,0.0000000,0.0000000,0.0000200,0.0000000,0.0000000,0.0000040
80.1464480,1.1492500,,-0.9674634,-0.2529986,0.0000450,0.0025226,0.0094739,-0.0052391,-0.0005634,,,,1.0560272,-4.1295524,-10.7505894,0.0000000,0.0000000,0.0000000,0.0229850,0.0002009,0.0000000,0.0000000,0.0000201,0.0000000,0.0000000,0.0000000,0.0002009,0.0000000,0.0000000,0.0000201,0.0000000,0.0000000,0.0000000,0.0002009,0.0000000,0.0000000,0.0000201,0.0000201,0.0000000,0.0000000,0.0000040,0.0000000,0.0000000,0.0000000,0.0000201,0.0000000,0.0000000,0.0000040,0.0000000,0.0000000,0.0000000,0.0000201,0.0000000,0.0000000,0.0000040
80.1676920,1.0506500,,-0.9674633,-0.2529987,0.0000219,0.0025362,0.0084906,-0.0052746,0.0019155,,,,1.0560272,-4.1295524,-10.7505894,0.0000000,0.0000000,0.0000000,0.0210130,0.0002018,0.0000000,0.0000000,0.0000202,0.0000000,0.0000000,0.0000000,0.0002018,0.0000000,0.0000000,0.0000202,0.0000000,0.0000000,0.0000000,0.0002018,0.0000000,0.0000000,0.0000202,0.0000202,0.0000000,0.0000000,0.0000040,0.0000000,0.0000000,0.0000000,0.0000202,0.0000000,0.0000000,0.0000040,0.0000000,0.0000000,0.0000000,0.0000202,0.0000000,0.0000000,0.0000040
80.1879020,0.9994000,,-0.9674633,-0.2529987,0.0000005,0.0025587,0.0116306,-0.0118612,-0.0034368,,,,1.0560272,-4.1295524,-10.7505894,0.0000000,0.0000000,0.0000000,0.0199880,0.0002026,0.0000000,0.0000000,0.0000202,0.0000000,0.0000000,0.0000000,0.0002026,0.0000000,0.0000000,0.0000202,0.0000000,0.0000000,0.0000000,0.0002026,0.0000000,0.0000000,0.0000202,0.0000202,0.0000000,0.0000000,0.0000040,0.0000000,0.0000000,0.0000000,0.0000202,0.0000000,0.0000000,0.0000040,0.0000000,0.0000000,0.0000000,0.0000202,0.0000000,0.0000000,0.0000040
80.2088690,1.0500500,,-0.9674285,-0.2531280,0.0000537,0.0028655,0.0060976,0.0513661,-0.0378588,,,,1.0560272,-4.1295524,-10.7505894,0.0000000,0.0000000,0.0000000,0.0210010,0.0002034,0.0000000,0.0000000,0.0000203,0.0000000,0.0000000,0.0000000,0.0002034,0.0000000,0.0000000,0.0000203,0.0000000,0.0000000,0.0000000,0.0002034,0.0000000,0.0000000,0.0000203,0.0000203,0.0000000,0.0000000,0.0000040,0.0000000,0.0000000,0.0000000,0.0000203,0.0000000,0.0000000,0.0000040,0.0000000,0.0000000,0.0000000,0.0000203,0.0000000,0.0000000,0.0000040
80.2247560,,1.0000000,-0.9674285,-0.2531280,0.0000537,0.0032451,,,,0.0000000,0.0000000,0.0000000,1.0560272,-4.1295524,-10.7505894,0.0000000,0.0000000,0.0000000,0.1000000,0.0001994,0.0000000,0.0000000,0.0000199,0.0000000,0.0000000,0.0000000,0.0001994,0.0000000,0.0000000,0.0000199,0.0000000,0.0000000,0.0000000,0.0001994,0.0000000,0.0000000,0.0000199,0.0000199,0.0000000,0.0000000,0.0000040,0.0000000,0.0000000,0.0000000,0.0000199,0.0000000,0.0000000,0.0000040,0.0000000,0.0000000,0.0000000,0.0000199,0.0000000,0.0000000,0.0000040
80.2385270,1.0005001,,-0.9673934,-0.2532574,0.0001726,0.0032451,-0.0127212,0.0053431,0.0062094,,,,1.0560272,-4.1295524,-10.7505894,0.0000000,0.0000000,0.0000000,0.0200100,0.0002002,0.0000000,0.0000000,0.0000200,0.0000000,0.0000000,0.0000000,0.0002002,0.0000000,0.0000000,0.0000200,0.0000000,0.0000000,0.0000000,0.0002002,0.0000000,0.0000000,0.0000200,0.0000200,0.0000000,0.0000000,0.0000040,0.0000000,0.0000000,0.0000000,0.0000200,0.0000000,0.0000000,0.0000040,0.0000000,0.0000000,0.0000000,0.0000200,0.0000000,0.0000000,0.0000040
80.2514040,1.1494499,,-0.9673574,-0.2533860,0.0003095,0.0038278,0.0171303,-0.0908419,0.0062633,,,,1.0560272,-4.1295524,-10.7505894,0.0000000,0.0000000,0.0000000,0.0229890,0.0002011,0.0000000,0.0000000,0.0000201,0.0000000,0.0000000,0.0000000,0.0002011,0.0000000,0.0000000,0.0000201,0.0000000,0.0000000,0.0000000,0.0002011,0.0000000,0.0000000,0.0000201,0.0000201,0.0000000,0.0000000,0.0000040,0.0000000,0.0000000,0.0000000,0.0000201,0.0000000,0.0000000,0.0000040,0.0000000,0.0000000,0.0000000,0.0000201,0.0000000,0.0000000,0.0000040
80.2727690,1.0504000,,-0.9673173,-0.2535285,0.0002323,0.0044414,0.0176899,-0.0148500,0.0060384,,,,1.0560272,-4.1295524,-10.7505894,0.0000000,0.0000000,0.0000000,0.0210080,0.0002019,0.0000000,0.0000000,0.0000202,0.0000000,0.0000000,0.0000000,0.0002019,0.0000000,0.0000000,0.0000202,0.0000000,0.0000000,0.0000000,0.0002019,0.0000000,0.0000000,0.0000202,0.0000202,0.0000000,0.0000000,0.0000040,0.0000000,0.0000000,0.0000000,0.0000202,0.0000000,0.0000000,0.0000040,0.0000000,0.0000000,0.0000000,0.0000202,0.0000000,0.0000000,0.0000040
80.2942160,0.9996500,,-0.9672965,-0.2535928,0.0002954,0.0052044,0.0208689,-0.0169388,0.0537700,,,,1.0560291,-4.1295471,-10.7505999,0.0001940,0.0005104,-0.0010706,0.0199930,0.0002027,0.0000000,0.0000000,0.0000203,0.0000000,0.0000000,0.0000000,0.0002027,0.0000000,0.0000000,0.0000203,0.0000000,0.0000000,0.0000000,0.0002027,0.0000000,0.0000000,0.0000203,0.0000203,0.0000000,0.0000000,0.0000040,0.0000000,0.0000000,0.0000000,0.0000203,0.0000000,0.0000000,0.0000040,0.0000000,0.0000000,0.0000000,0.0000203,0.0000000,0.0000000,0.0000040
80.3131890,,0.9999800,-0.9672487,-0.2537555,0.0004112,0.0060577,,,,0.0000000,0.0000000,0.0000000,1.0560291,-4.1295471,-10.7505999,0.0001940,0.0005104,-0.0010706,0.0999980,0.0001987,0.0000000,0.0000000,0.0000198,0.0000000,0.0000000,0.0000000,0.0001987,0.0000000,0.0000000,0.0000198,0.0000000,0.0000000,0.0000000,0.0001987,0.0000000,0.0000000,0.0000198,0.0000198,0.0000000,0.0000000,0.0000040,0.0000000,0.0000000,0.0000000,0.0000198,0.0000000,0.0000000,0.0000040,0.0000000,0.0000000,0.0000000,0.0000198,0.0000000,0.0000000,0.0000040
80.3268310,1.0000000,,-0.9672487,-0.2537555,0.0004112,0.0060577,-0.1175181,0.1858513,-0.1311198,,,,1.0560309,-4.1295810,-10.7505951,-0.0000189,-0.0039116,0.0015019,0.0200000,0.0001995,0.0000000,0.0000000,0.0000199,0.0000000,0.0000000,0.0000000,0.0001995,0.0000000,0.0000000,0.0000199,0.0000000,0.0000000,0.0000000,0.0001995,0.0000000,0.0000000,0.0000199,0.0000199,0.0000000,0.0000000,0.0000040,0.0000000,0.0000000,0.0000000,0.0000199,0.0000000,0.0000000,0.0000040,0.0000000,0.0000000,0.0000000,0.0000199,0.0000000,0.0000000,0.0000040
80.3399340,1.3499000,,-0.9672443,-0.2537481,0.0002584,0.0069838,-0.0557760,-0.0282978,-0.0841756,,,,1.0560309,-4.1295810,-10.7505951,0.0000000,0.0000000,0.0000000,0.0269980,0.0002006,0.0000000,0.0000000,0.0000200,0.0000000,0.0000000,0.0000000,0.0002006,0.0000000,0.0000000,0.0000200,0.0000000,0.0000000,0.0000000,0.0002006,0.0000000,0.0000000,0.0000200,0.0000200,0.0000000,0.0000000,0.0000040,0.0000000,0.0000000,0.0000000,0.0000200,0.0000000,0.0000000,0.0000040,0.0000000,0.0000000,0.0000000,0.0000200,0.0000000,0.0000000,0.0000040
80.3612850,1.0004500,,-0.9672545,-0.2536878,0.0002099,0.0077308,-0.1382777,-0.1323664,-0.0465510,,,,1.0559938,-4.1295714,-10.7505856,-0.0037064,0.0009356,0.0009615,0.0200090,0.0002014,0.0000000,0.0000000,0.0000201,0.0000000,0.0000000,0.0000000,0.0002014,0.0000000,0.0000000,0.0000201,0.0000000,0.0000000,0.0000000,0.0002014,0.0000000,0.0000000,0.0000201,0.0000201,0.0000000,0.0000000,0.0000040,0.0000000,0.0000000,0.0000000,0.0000201,0.0000000,0.0000000,0.0000040,0.0000000,0.0000000,0.0000000,0.0000201,0.0000000,0.0000000,0.0000040
80.3799810,1.0000000,,-0.9672846,-0.2535799,0.0002108,0.0075469,-0.0886167,-0.2648145,0.3704699,,,,1.0558779,-4.1295142,-10.7506399,-0.0078804,0.0047881,-0.0063752,0.0200000,0.0002022,0.0000000,0.0000000,0.0000202,0.0000000,0.0000000,0.0000000,0.0002022,0.0000000,0.0000000,0.0000202,0.0000000,0.0000000,0.0000000,0.0002022,0.0000000,0.0000000,0.0000202,0.0000202,0.0000000,0.0000000,0.0000040,0.0000000,0.0000000,0.0000000,0.0000202,0.0000000,0.0000000,0.0000040,0.0000000,0.0000000,0.0000000,0.0000202,0.0000000,0.0000000,0.0000040
80.3997410,1.0000000,,-0.9672720,-0.2536317,0.0005194,0.0074160,0.0769609,-0.1629858,0.3509530,,,,1.0557173,-4.1293817,-10.7508373,-0.0081720,0.0084822,-0.0133416,0.0200000,0.0002030,0.0000000,0.0000000,0.0000203,0.0000000,0.0000000,0.0000000,0.0002030,0.0000000,0.0000000,0.0000203,0.0000000,0.0000000,0.0000000,0.0002030,0.0000000,0.0000000,0.0000203,0.0000203,0.0000000,0.0000000,0.0000040,0.0000000,0.0000000,0.0000000,0.0000203,0.0000000,0.0000000,0.0000040,0.0000000,0.0000000,0.0000000,0.0000203,0.0000000,0.0000000,0.0000040
80.4173040,,1.0000199,-0.9672720,-0.2536317,0.0005194,0.0078790,,,,-0.5578975,-0.3409420,-0.0021425,1.0446246,-4.1361675,-10.7508755,-0.0092802,0.0078042,-0.0133454,0.1000020,0.0001989,0.0000000,0.0000000,0.0000199,0.0000000,0.0000000,0.0000000,0.0001989,0.0000000,0.0000000,0.0000199,0.0000000,0.0000000,0.0000000,0.0001989,0.0000000,0.0000000,0.0000199,0.0000199,0.0000000,0.0000000,0.0000040,0.0000000,0.0000000,0.0000000,0.0000199,0.0000000,0.0000000,0.0000040,0.0000000,0.0000000,0.0000000,0.0000199,0.0000000,0.0000000,0.0000040
80.4305070,0.9999000,,-0.9672580,-0.2536687,0.0011101,0.0078790,0.3331811,0.3659787,-0.1715160,,,,1.0445331,-4.1360431,-10.7511091,0.0001378,0.0046477,-0.0100192,0.0199980,0.0001997,0.0000000,0.0000000,0.0000200,0.0000000,0.0000000,0.0000000,0.0001997,0.0000000,0.0000000,0.0000200,0.0000000,0.0000000,0.0000000,0.0001997,0.0000000,0.0000000,0.0000200,0.0000200,0.0000000,0.0000000,0.0000040,0.0000000,0.0000000,0.0000000,0.0000200,0.0000000,0.0000000,0.0000040,0.0000000,0.0000000,0.0000000,0.0000200,0.0000000,0.0000000,0.0000040
80.4450640,1.1996500,,-0.9672354,-0.2537200,0.0016047,0.0088131,0.0926617,0.2342131,-0.1337087,,,,1.0445931,-4.1359777,-10.7513123,0.0048570,0.0007918,-0.0069090,0.0239930,0.0002007,0.0000000,0.0000000,0.0000200,0.0000000,0.0000000,0.0000000,0.0002007,0.0000000,0.0000000,0.0000200,0.0000000,0.0000000,0.0000000,0.0002007,0.0000000,0.0000000,0.0000200,0.0000200,0.0000000,0.0000000,0.0000040,0.0000000,0.0000000,0.0000000,0.0000200,0.0000000,0.0000000,0.0000040,0.0000000,0.0000000,0.0000000,0.0000200,0.0000000,0.0000000,0.0000040
80.4639710,1.0003999,,-0.9672223,-0.2537199,0.0021422,0.0100077,0.2311453,0.5087539,-0.1809977,,,,1.0447809,-4.1360288,-10.7514162,0.0139153,-0.0058709,-0.0034922,0.0200080,0.0002015,0.0000000,0.0000000,0.0000201,0.0000000,0.0000000,0.0000000,0.0002015,0.0000000,0.0000000,0.0000201,0.0000000,0.0000000,0.0000000,0.0002015,0.0000000,0.0000000,0.0000201,0.0000201,0.0000000,0.0000000,0.0000040,0.0000000,0.0000000,0.0000000,0.0000201,0.0000000,0.0000000,0.0000040,0.0000000,0.0000000,0.0000000,0.0000201,0.0000000,0.0000000,0.0000040
80.4839020,1.0001000,,-0.9672217,-0.2536923,0.0026548,0.0106543,0.1804683,-0.0288109,0.0165415,,,,1.0447809,-4.1360288,-10.7514162,0.0000000,0.0000000,0.0000000,0.0200020,0.0002023,0.0000000,0.0000000,0.0000202,0.0000000,0.0000000,0.0000000,0.0002023,0.0000000,0.0000000,0.0000202,0.0000000,0.0000000,0.0000000,0.0002023,0.0000000,0.0000000,0.0000202,0.0000202,0.0000000,0.0000000,0.0000040,0.0000000,0.0000000,0.0000000,0.0000202,0.0000000,0.0000000,0.0000040,0.0000000,0.0000000,0.0000000,0.0000202,0.0000000,0.0000000,0.0000040
80.5038360,1.0001000,,-0.9672235,-0.2536314,0.0031623,0.0117235,0.1755079,-0.1514904,-0.1654887,,,,1.0447969,-4.1359859,-10.7513828,0.0016123,0.0042923,0.0033821,0.0200020,0.0002031,0.0000000,0.0000000,0.0000203,0.0000000,0.0000000,0.0000000,0.0002031,0.0000000,0.0000000,0.0000203,0.0000000,0.0000000,0.0000000,0.0002031,0.0000000,0.0000000,0.0000203,0.0000203,0.0000000,0.0000000,0.0000040,0.0000000,0.0000000,0.0000000,0.0000203,0.0000000,0.0000000,0.0000040,0.0000000,0.0000000,0.0000000,0.0000203,0.0000000,0.0000000,0.0000040
80.5210780,,0.9999900,-0.9672235,-0.2536314,0.0031623,0.0117235,,,,-0.2996412,-0.1603624,0.0002354,1.0388286,-4.1391816,-10.7513676,0.0010160,0.0039730,0.0033836,0.0999990,0.0001991,0.0000000,0.0000000,0.0000199,0.0000000,0.0000000,0.0000000,0.0001991,0.0000000,0.0000000,0.0000199,0.0000000,0.0000000,0.0000000,0.0001991,0.0000000,0.0000000,0.0000199,0.0000199,0.0000000,0.0000000,0.0000040,0.0000000,0.0000000,0.0000000,0.0000199,0.0000000,0.0000000,0.0000040,0.0000000,0.0000000,0.0000000,0.0000199,0.0000000,0.0000000,0.0000040
80.5339460,1.0995500,,-0.9672161,-0.2536175,0.0036265,0.0124907,0.0617377,-0.2086111,0.0828364,,,,1.0388390,-4.1390424,-10.7513123,-0.0000756,0.0086759,0.0016809,0.0219910,0.0001999,0.0000000,0.0000000,0.0000200,0.0000000,0.0000000,0.0000000,0.0001999,0.0000000,0.0000000,0.0000200,0.0000000,0.0000000,0.0000000,0.0001999,0.0000000,0.0000000,0.0000200,0.0000200,0.0000000,0.0000000,0.0000040,0.0000000,0.0000000,0.0000000,0.0000200,0.0000000,0.0000000,0.0000040,0.0000000,0.0000000,0.0000000,0.0000200,0.0000000,0.0000000,0.0000040
80.5469760,1.0504000,,-0.9671929,-0.2536969,0.0037708,0.0126720,-0.0457532,-0.4841884,0.1484205,,,,1.0387757,-4.1387711,-10.7513065,-0.0059466,0.0171337,-0.0011664,0.0210080,0.0002008,0.0000000,0.0000000,0.0000201,0.0000000,0.0000000,0.0000000,0.0002008,0.0000000,0.0000000,0.0000201,0.0000000,0.0000000,0.0000000,0.0002008,0.0000000,0.0000000,0.0000201,0.0000201,0.0000000,0.0000000,0.0000040,0.0000000,0.0000000,0.0000000,0.0000201,0.0000000,0.0000000,0.0000040,0.0000000,0.0000000,0.0000000,0.0000201,0.0000000,0.0000000,0.0000040
80.5669370,0.9995000,,-0.9672034,-0.2536406,0.0037968,0.0129975,-0.0179175,-0.2763273,0.0193320,,,,1.0386266,-4.1383820,-10.7513323,-0.0089737,0.0217781,-0.0014029,0.0199900,0.0002016,0.0000000,0.0000000,0.0000201,0.0000000,0.0000000,0.0000000,0.0002016,0.0000000,0.0000000,0.0000201,0.0000000,0.0000000,0.0000000,0.0002016,0.0000000,0.0000000,0.0000201,0.0000201,0.0000000,0.0000000,0.0000040,0.0000000,0.0000000,0.0000000,0.0000201,0.0000000,0.0000000,0.0000040,0.0000000,0.0000000,0.0000000,0.0000201,0.0000000,0.0000000,0.0000040
80.5868130,1.0005500,,-0.9671968,-0.2536392,0.0038136,0.0135038,-0.0551929,-0.0799361,-0.1123662,,,,1.0386266,-4.1383820,-10.7513323,0.0000000,0.0000000,0.0000000,0.0200110,0.0002024,0.0000000,0.0000000,0.0000202,0.0000000,0.0000000,0.0000000,0.0002024,0.0000000,0.0000000,0.0000202,0.0000000,0.0000000,0.0000000,0.0002024,0.0000000,0.0000000,0.0000202,0.0000202,0.0000000,0.0000000,0.0000040,0.0000000,0.0000000,0.0000000,0.0000202,0.0000000,0.0000000,0.0000040,0.0000000,0.0000000,0.0000000,0.0000202,0.0000000,0.0000000,0.0000040
80.6064740,0.9995000,,-0.9671876,-0.2536558,0.0037845,0.0138572,-0.0124292,-0.0570045,0.1721189,,,,1.0386183,-4.1383724,-10.7513666,-0.0008249,0.0009561,-0.0034064,0.0199900,0.0002032,0.0000000,0.0000000,0.0000203,0.0000000,0.0000000,0.0000000,0.0002032,0.0000000,0.0000000,0.0000203,0.0000000,0.0000000,0.0000000,0.0002032,0.0000000,0.0000000,0.0000203,0.0000203,0.0000000,0.0000000,0.0000040,0.0000000,0.0000000,0.0000000,0.0000203,0.0000000,0.0000000,0.0000040,0.0000000,0.0000000,0.0000000,0.0000203,0.0000000,0.0000000,0.0000040
80.6241650,,1.0199900,-0.9671876,-0.2536558,0.0037845,0.0138572,,,,-0.2635390,-0.1482757,0.0000921,1.0333741,-4.1413417,-10.7513647,-0.0013487,0.0006595,-0.0034062,0.1019990,0.0001992,0.0000000,0.0000000,0.0000199,0.0000000,0.0000000,0.0000000,0.0001992,0.0000000,0.0000000,0.0000199,0.0000000,0.0000000,0.0000000,0.0001992,0.0000000,0.0000000,0.0000199,0.0000199,0.0000000,0.0000000,0.0000040,0.0000000,0.0000000,0.0000000,0.0000199,0.0000000,0.0000000,0.0000040,0.0000000,0.0000000,0.0000000,0.0000199,0.0000000,0.0000000,0.0000040
80.6376050,1.1003000,,-0.9671859,-0.2536210,0.0041239,0.0144923,-0.0140271,0.0534298,0.0611571,,,,1.0333741,-4.1413417,-10.7513647,0.0000000,0.0000000,0.0000000,0.0220060,0.0002000,0.0000000,0.0000000,0.0000200,0.0000000,0.0000000,0.0000000,0.0002000,0.0000000,0.0000000,0.0000200,0.0000000,0.0000000,0.0000000,0.0002000,0.0000000,0.0000000,0.0000200,0.0000200,0.0000000,0.0000000,0.0000040,0.0000000,0.0000000,0.0000000,0.0000200,0.0000000,0.0000000,0.0000040,0.0000000,0.0000000,0.0000000,0.0000200,0.0000000,0.0000000,0.0000040
80.6506190,1.0996000,,-0.9671887,-0.2535738,0.0040918,0.0151251,0.0778864,-0.0646776,0.0488738,,,,1.0333741,-4.1413417,-10.7513647,0.0000000,0.0000000,0.0000000,0.0219920,0.0002009,0.0000000,0.0000000,0.0000201,0.0000000,0.0000000,0.0000000,0.0002009,0.0000000,0.0000000,0.0000201,0.0000000,0.0000000,0.0000000,0.0002009,0.0000000,0.0000000,0.0000201,0.0000201,0.0000000,0.0000000,0.0000040,0.0000000,0.0000000,0.0000000,0.0000201,0.0000000,0.0000000,0.0000040,0.0000000,0.0000000,0.0000000,0.0000201,0.0000000,0.0000000,0.0000040
80.6709940,1.0000000,,-0.9671748,-0.2535894,0.0042651,0.0156981,0.1328610,-0.0247476,0.1718597,,,,1.0333741,-4.1413417,-10.7513647,0.0000000,0.0000000,0.0000000,0.0200000,0.0002017,0.0000000,0.0000000,0.0000202,0.0000000,0.0000000,0.0000000,0.0002017,0.0000000,0.0000000,0.0000202,0.0000000,0.0000000,0.0000000,0.0002017,0.0000000,0.0000000,0.0000202,0.0000202,0.0000000,0.0000000,0.0000040,0.0000000,0.0000000,0.0000000,0.0000202,0.0000000,0.0000000,0.0000040,0.0000000,0.0000000,0.0000000,0.0000202,0.0000000,0.0000000,0.0000040
80.6923560,1.0003999,,-0.9671636,-0.2535969,0.0044101,0.0162221,0.0280165,0.2413112,0.0199585,,,,1.0334026,-4.1413808,-10.7513704,0.0028494,-0.0039179,-0.0005616,0.0200080,0.0002025,0.0000000,0.0000000,0.0000202,0.0000000,0.0000000,0.0000000,0.0002025,0.0000000,0.0000000,0.0000202,0.0000000,0.0000000,0.0000000,0.0002025,0.0000000,0.0000000,0.0000202,0.0000202,0.0000000,0.0000000,0.0000040,0.0000000,0.0000000,0.0000000,0.0000202,0.0000000,0.0000000,0.0000040,0.0000000,0.0000000,0.0000000,0.0000202,0.0000000,0.0000000,0.0000040
80.7109920,0.9997500,,-0.9671805,-0.2535021,0.0044798,0.0166716,0.0275047,0.2182050,-0.0596695,,,,1.0334859,-4.1414948,-10.7513714,0.0054879,-0.0074837,0.0004801,0.0199950,0.0002033,0.0000000,0.0000000,0.0000203,0.0000000,0.0000000,0.0000000,0.0002033,0.0000000,0.0000000,0.0000203,0.0000000,0.0000000,0.0000000,0.0002033,0.0000000,0.0000000,0.0000203,0.0000203,0.0000000,0.0000000,0.0000040,0.0000000,0.0000000,0.0000000,0.0000203,0.0000000,0.0000000,0.0000040,0.0000000,0.0000000,0.0000000,0.0000203,0.0000000,0.0000000,0.0000040
80.7293040,,1.0000499,-0.9671805,-0.2535021,0.0044220,0.0168414,,,,-0.2598954,-0.1373660,0.0003312,1.0283047,-4.1442289,-10.7513647,0.0049704,-0.0077569,0.0004807,0.1000050,0.0001993,0.0000000,0.0000000,0.0000199,0.0000000,0.0000000,0.0000000,0.0001993,0.0000000,0.0000000,0.0000199,0.0000000,0.0000000,0.0000000,0.0001993,0.0000000,0.0000000,0.0000199,0.0000199,0.0000000,0.0000000,0.0000040,0.0000000,0.0000000,0.0000000,0.0000199,0.0000000,0.0000000,0.0000040,0.0000000,0.0000000,0.0000000,0.0000199,0.0000000,0.0000000,0.0000040
80.7427590,1.0002000,,-0.9671909,-0.2534530,0.0044220,0.0168414,-0.0051304,0.3134330,-0.0504036,,,,1.0284342,-4.1444397,-10.7513475,0.0079712,-0.0132986,0.0012701,0.0200040,0.0002001,0.0000000,0.0000000,0.0000200,0.0000000,0.0000000,0.0000000,0.0002001,0.0000000,0.0000000,0.0000200,0.0000000,0.0000000,0.0000000,0.0002001,0.0000000,0.0000000,0.0000200,0.0000200,0.0000000,0.0000000,0.0000040,0.0000000,0.0000000,0.0000000,0.0000200,0.0000000,0.0000000,0.0000040,0.0000000,0.0000000,0.0000000,0.0000200,0.0000000,0.0000000,0.0000040
80.7558580,1.2496500,,-0.9672082,-0.2533681,0.0043371,0.0171414,-0.0409487,0.2139751,-0.0899754,,,,1.0286554,-4.1448374,-10.7512903,0.0097379,-0.0185281,0.0033281,0.0249930,0.0002011,0.0000000,0.0000000,0.0000201,0.0000000,0.0000000,0.0000000,0.0002011,0.0000000,0.0000000,0.0000201,0.0000000,0.0000000,0.0000000,0.0002011,0.0000000,0.0000000,0.0000201,0.0000201,0.0000000,0.0000000,0.0000040,0.0000000,0.0000000,0.0000000,0.0000201,0.0000000,0.0000000,0.0000040,0.0000000,0.0000000,0.0000000,0.0000201,0.0000000,0.0000000,0.0000040
80.7773980,1.0000501,,-0.9672267,-0.2532983,0.0042170,0.0171578,-0.0855531,0.0040365,0.0621290,,,,1.0288354,-4.1452165,-10.7512360,0.0082650,-0.0193985,0.0020824,0.0200010,0.0002019,0.0000000,0.0000000,0.0000202,0.0000000,0.0000000,0.0000000,0.0002019,0.0000000,0.0000000,0.0000202,0.0000000,0.0000000,0.0000000,0.0002019,0.0000000,0.0000000,0.0000202,0.0000202,0.0000000,0.0000000,0.0000040,0.0000000,0.0000000,0.0000000,0.0000202,0.0000000,0.0000000,0.0000040,0.0000000,0.0000000,0.0000000,0.0000202,0.0000000,0.0000000,0.0000040
80.7971540,1.0001000,,-0.9672443,-0.2532192,0.0042436,0.0173315,-0.0245194,0.0092967,0.0034003,,,,1.0288354,-4.1452165,-10.7512360,0.0000000,0.0000000,0.0000000,0.0200020,0.0002027,0.0000000,0.0000000,0.0000202,0.0000000,0.0000000,0.0000000,0.0002027,0.0000000,0.0000000,0.0000202,0.0000000,0.0000000,0.0000000,0.0002027,0.0000000,0.0000000,0.0000202,0.0000202,0.0000000,0.0000000,0.0000040,0.0000000,0.0000000,0.0000000,0.0000202,0.0000000,0.0000000,0.0000040,0.0000000,0.0000000,0.0000000,0.0000202,0.0000000,0.0000000,0.0000040
80.8163640,,1.0099499,-0.9672449,-0.2532239,0.0044220,0.0171866,,,,-0.3298462,-0.2030639,-0.0007693,1.0222725,-4.1492310,-10.7512541,-0.0006556,-0.0004010,-0.0000018,0.1009950,0.0001987,0.0000000,0.0000000,0.0000198,0.0000000,0.0000000,0.0000000,0.0001987,0.0000000,0.0000000,0.0000198,0.0000000,0.0000000,0.0000000,0.0001987,0.0000000,0.0000000,0.0000198,0.0000198,0.0000000,0.0000000,0.0000040,0.0000000,0.0000000,0.0000000,0.0000198,0.0000000,0.0000000,0.0000040,0.0000000,0.0000000,0.0000000,0.0000198,0.0000000,0.0000000,0.0000040
80.8286200,1.0011500,,-0.9672449,-0.2532239,0.0044220,0.0171866,0.0308464,-0.1171015,-0.0137417,,,,1.0222725,-4.1492310,-10.7512541,0.0000000,0.0000000,0.0000000,0.0200230,0.0001994,0.0000000,0.0000000,0.0000199,0.0000000,0.0000000,0.0000000,0.0001994,0.0000000,0.0000000,0.0000199,0.0000000,0.0000000,0.0000000,0.0001994,0.0000000,0.0000000,0.0000199,0.0000199,0.0000000,0.0000000,0.0000040,0.0000000,0.0000000,0.0000000,0.0000199,0.0000000,0.0000000,0.0000040,0.0000000,0.0000000,0.0000000,0.0000199,0.0000000,0.0000000,0.0000040
80.8433410,1.2993001,,-0.9672520,-0.2532226,0.0046028,0.0167472,0.0491299,-0.2090406,-0.0130125,,,,1.0222524,-4.1491613,-10.7512474,-0.0015414,0.0053479,0.0005261,0.0259860,0.0002005,0.0000000,0.0000000,0.0000200,0.0000000,0.0000000,0.0000000,0.0002005,0.0000000,0.0000000,0.0000200,0.0000000,0.0000000,0.0000000,0.0002005,0.0000000,0.0000000,0.0000200,0.0000200,0.0000000,0.0000000,0.0000040,0.0000000,0.0000000,0.0000000,0.0000200,0.0000000,0.0000000,0.0000040,0.0000000,0.0000000,0.0000000,0.0000200,0.0000000,0.0000000,0.0000040
