t,predict_cpu,update_cpu,quat_x,quat_y,quat_z,quat_w,accel_x,accel_y,accel_z,of_x,of_y,of_z,x_x,x_y,x_z,x_vx,x_vy,x_vz,dt,P_0,P_1,P_2,P_3,P_4,P_5,P_6,P_7,P_8,P_9,P_10,P_11,P_12,P_13,P_14,P_15,P_16,P_17,P_18,P_19,P_20,P_21,P_22,P_23,P_24,P_25,P_26,P_27,P_28,P_29,P_30,P_31,P_32,P_33,P_34,P_35
28.6038950,1.0001501,,-0.9838882,-0.1787614,0.0001305,0.0028972,0.0013312,-0.0022305,-0.0024686,,,,2.2919259,-12.5680637,-31.0755386,0.0000000,0.0000000,0.0000000,0.0200030,0.3953829,0.0000000,0.0000000,0.0220375,0.0000000,0.0000000,0.0000000,0.3953829,0.0000000,0.0000000,0.0220375,0.0000000,0.0000000,0.0000000,0.3953829,0.0000000,0.0000000,0.0220375,0.0220375,0.0000000,0.0000000,0.0014991,0.0000000,0.0000000,0.0000000,0.0220375,0.0000000,0.0000000,0.0014991,0.0000000,0.0000000,0.0000000,0.0220375,0.0000000,0.0000000,0.0014991
28.6237190,1.0001000,,-0.9838881,-0.1787614,0.0001041,0.0029082,-0.0007535,0.0015322,0.0007112,,,,2.2919259,-12.5680637,-31.0755386,0.0000000,0.0000000,0.0000000,0.0200020,0.3962645,0.0000000,0.0000000,0.0220675,0.0000000,0.0000000,0.0000000,0.3962645,0.0000000,0.0000000,0.0220675,0.0000000,0.0000000,0.0000000,0.3962645,0.0000000,0.0000000,0.0220675,0.0220675,0.0000000,0.0000000,0.0014991,0.0000000,0.0000000,0.0000000,0.0220675,0.0000000,0.0000000,0.0014991,0.0000000,0.0000000,0.0000000,0.0220675,0.0000000,0.0000000,0.0014991
28.6396580,,1.0001000,-0.9838881,-0.1787614,0.0001041,0.0029082,,,,0.0000000,0.0000000,0.0000000,2.2919259,-12.5680637,-31.0755386,0.0000000,0.0000000,0.0000000,0.1000100,0.3900994,0.0000000,0.0000000,0.0217242,0.0000000,0.0000000,0.0000000,0.3900994,0.0000000,0.0000000,0.0217242,0.0000000,0.0000000,0.0000000,0.3900994,0.0000000,0.0000000,0.0217242,0.0217242,0.0000000,0.0000000,0.0014800,0.0000000,0.0000000,0.0000000,0.0217242,0.0000000,0.0000000,0.0014800,0.0000000,0.0000000,0.0000000,0.0217242,0.0000000,0.0000000,0.0014800
28.6536850,1.0995500,,-0.9838882,-0.1787615,0.0000927,0.0028795,-0.0044661,-0.0022704,0.0047425,,,,2.2919259,-12.5680637,-31.0755386,0.0000000,0.0000000,0.0000000,0.0219910,0.3910549,0.0000000,0.0000000,0.0217567,0.0000000,0.0000000,0.0000000,0.3910549,0.0000000,0.0000000,0.0217567,0.0000000,0.0000000,0.0000000,0.3910549,0.0000000,0.0000000,0.0217567,0.0217567,0.0000000,0.0000000,0.0014800,0.0000000,0.0000000,0.0000000,0.0217567,0.0000000,0.0000000,0.0014800,0.0000000,0.0000000,0.0000000,0.0217567,0.0000000,0.0000000,0.0014800
28.6666520,1.0497501,,-0.9838882,-0.1787615,0.0000909,0.0028791,-0.0070472,0.0012299,0.0001664,,,,2.2919259,-12.5680637,-31.0755386,0.0000000,0.0000000,0.0000000,0.0209950,0.3919684,0.0000000,0.0000000,0.0217878,0.0000000,0.0000000,0.0000000,0.3919684,0.0000000,0.0000000,0.0217878,0.0000000,0.0000000,0.0000000,0.3919684,0.0000000,0.0000000,0.0217878,0.0217878,0.0000000,0.0000000,0.0014800,0.0000000,0.0000000,0.0000000,0.0217878,0.0000000,0.0000000,0.0014800,0.0000000,0.0000000,0.0000000,0.0217878,0.0000000,0.0000000,0.0014800
28.6879050,1.0506999,,-0.9838883,-0.1787615,0.0001021,0.0028682,-0.0034320,-0.0050918,-0.0026100,,,,2.2919259,-12.5680637,-31.0755386,0.0000000,0.0000000,0.0000000,0.0210140,0.3928841,0.0000000,0.0000000,0.0218189,0.0000000,0.0000000,0.0000000,0.3928841,0.0000000,0.0000000,0.0218189,0.0000000,0.0000000,0.0000000,0.3928841,0.0000000,0.0000000,0.0218189,0.0218189,0.0000000,0.0000000,0.0014800,0.0000000,0.0000000,0.0000000,0.0218189,0.0000000,0.0000000,0.0014800,0.0000000,0.0000000,0.0000000,0.0218189,0.0000000,0.0000000,0.0014800
28.7077440,0.9994500,,-0.9838883,-0.1787614,0.0001148,0.0028626,0.0035177,-0.0053230,-0.0010685,,,,2.2919259,-12.5680637,-31.0755386,0.0000000,0.0000000,0.0000000,0.0199890,0.3937564,0.0000000,0.0000000,0.0218485,0.0000000,0.0000000,0.0000000,0.3937564,0.0000000,0.0000000,0.0218485,0.0000000,0.0000000,0.0000000,0.3937564,0.0000000,0.0000000,0.0218485,0.0218485,0.0000000,0.0000000,0.0014800,0.0000000,0.0000000,0.0000000,0.0218485,0.0000000,0.0000000,0.0014800,0.0000000,0.0000000,0.0000000,0.0218485,0.0000000,0.0000000,0.0014800
28.7277470,1.0002501,,-0.9838883,-0.1787615,0.0001015,0.0028507,-0.0011022,-0.0054615,-0.0000536,,,,2.2919259,-12.5680637,-31.0755386,0.0000000,0.0000000,0.0000000,0.0200050,0.3946306,0.0000000,0.0000000,0.0218781,0.0000000,0.0000000,0.0000000,0.3946306,0.0000000,0.0000000,0.0218781,0.0000000,0.0000000,0.0000000,0.3946306,0.0000000,0.0000000,0.0218781,0.0218781,0.0000000,0.0000000,0.0014800,0.0000000,0.0000000,0.0000000,0.0218781,0.0000000,0.0000000,0.0014800,0.0000000,0.0000000,0.0000000,0.0218781,0.0000000,0.0000000,0.0014800
28.7439860,,1.0199599,-0.9838883,-0.1787615,0.0001015,0.0028507,,,,0.0000000,0.0000000,0.0000000,2.2919259,-12.5680637,-31.0755386,0.0000000,0.0000000,0.0000000,0.1019960,0.3885158,0.0000000,0.0000000,0.0215391,0.0000000,0.0000000,0.0000000,0.3885158,0.0000000,0.0000000,0.0215391,0.0000000,0.0000000,0.0000000,0.3885158,0.0000000,0.0000000,0.0215391,0.0215391,0.0000000,0.0000000,0.0014612,0.0000000,0.0000000,0.0000000,0.0215391,0.0000000,0.0000000,0.0014612,0.0000000,0.0000000,0.0000000,0.0215391,0.0000000,0.0000000,0.0014612
28.7587130,0.9998000,,-0.9838883,-0.1787616,0.0000726,0.0028571,-0.0005282,-0.0047831,-0.0002786,,,,2.2919259,-12.5680637,-31.0755386,0.0000000,0.0000000,0.0000000,0.0199960,0.3893772,0.0000000,0.0000000,0.0215683,0.0000000,0.0000000,0.0000000,0.3893772,0.0000000,0.0000000,0.0215683,0.0000000,0.0000000,0.0000000,0.3893772,0.0000000,0.0000000,0.0215683,0.0215683,0.0000000,0.0000000,0.0014612,0.0000000,0.0000000,0.0000000,0.0215683,0.0000000,0.0000000,0.0014612,0.0000000,0.0000000,0.0000000,0.0215683,0.0000000,0.0000000,0.0014612
28.7717640,1.1998000,,-0.9838882,-0.1787616,0.0000643,0.0028770,0.0000106,-0.0085637,-0.0021000,,,,2.2919259,-12.5680637,-31.0755386,0.0000000,0.0000000,0.0000000,0.0239960,0.3904123,0.0000000,0.0000000,0.0216034,0.0000000,0.0000000,0.0000000,0.3904123,0.0000000,0.0000000,0.0216034,0.0000000,0.0000000,0.0000000,0.3904123,0.0000000,0.0000000,0.0216034,0.0216034,0.0000000,0.0000000,0.0014612,0.0000000,0.0000000,0.0000000,0.0216034,0.0000000,0.0000000,0.0014612,0.0000000,0.0000000,0.0000000,0.0216034,0.0000000,0.0000000,0.0014612
28.7918300,1.0001000,,-0.9838881,-0.1787616,0.0000632,0.0029056,-0.0038705,-0.0030917,-0.0027666,,,,2.2919259,-12.5680637,-31.0755386,0.0000000,0.0000000,0.0000000,0.0200020,0.3912765,0.0000000,0.0000000,0.0216326,0.0000000,0.0000000,0.0000000,0.3912765,0.0000000,0.0000000,0.0216326,0.0000000,0.0000000,0.0000000,0.3912765,0.0000000,0.0000000,0.0216326,0.0216326,0.0000000,0.0000000,0.0014612,0.0000000,0.0000000,0.0000000,0.0216326,0.0000000,0.0000000,0.0014612,0.0000000,0.0000000,0.0000000,0.0216326,0.0000000,0.0000000,0.0014612
28.8119930,1.0005001,,-0.9838881,-0.1787616,0.0000586,0.0029009,-0.0041020,0.0047332,0.0022712,,,,2.2919259,-12.5680637,-31.0755386,0.0000000,0.0000000,0.0000000,0.0200100,0.3921423,0.0000000,0.0000000,0.0216619,0.0000000,0.0000000,0.0000000,0.3921423,0.0000000,0.0000000,0.0216619,0.0000000,0.0000000,0.0000000,0.3921423,0.0000000,0.0000000,0.0216619,0.0216618,0.0000000,0.0000000,0.0014612,0.0000000,0.0000000,0.0000000,0.0216618,0.0000000,0.0000000,0.0014612,0.0000000,0.0000000,0.0000000,0.0216618,0.0000000,0.0000000,0.0014612
28.8318450,0.9994000,,-0.9838881,-0.1787617,0.0000282,0.0028890,0.0011000,0.0047088,-0.0020459,,,,2.2919259,-12.5680637,-31.0755386,0.0000000,0.0000000,0.0000000,0.0199880,0.3930082,0.0000000,0.0000000,0.0216911,0.0000000,0.0000000,0.0000000,0.3930082,0.0000000,0.0000000,0.0216911,0.0000000,0.0000000,0.0000000,0.3930082,0.0000000,0.0000000,0.0216911,0.0216911,0.0000000,0.0000000,0.0014612,0.0000000,0.0000000,0.0000000,0.0216911,0.0000000,0.0000000,0.0014612,0.0000000,0.0000000,0.0000000,0.0216911,0.0000000,0.0000000,0.0014612
28.8477270,,1.0199701,-0.9838881,-0.1787617,0.0000282,0.0028890,,,,0.0000000,0.0000000,0.0000000,2.2919259,-12.5680637,-31.0755386,0.0000000,0.0000000,0.0000000,0.1019970,0.3869433,0.0000000,0.0000000,0.0213563,0.0000000,0.0000000,0.0000000,0.3869433,0.0000000,0.0000000,0.0213563,0.0000000,0.0000000,0.0000000,0.3869433,0.0000000,0.0000000,0.0213563,0.0213563,0.0000000,0.0000000,0.0014428,0.0000000,0.0000000,0.0000000,0.0213563,0.0000000,0.0000000,0.0014428,0.0000000,0.0000000,0.0000000,0.0213563,0.0000000,0.0000000,0.0014428
28.8615100,1.0005500,,-0.9838881,-0.1787617,0.0000264,0.0028861,-0.0023797,0.0032470,0.0033640,,,,2.2919259,-12.5680637,-31.0755386,0.0000000,0.0000000,0.0000000,0.0200110,0.3877980,0.0000000,0.0000000,0.0213852,0.0000000,0.0000000,0.0000000,0.3877980,0.0000000,0.0000000,0.0213852,0.0000000,0.0000000,0.0000000,0.3877980,0.0000000,0.0000000,0.0213852,0.0213852,0.0000000,0.0000000,0.0014428,0.0000000,0.0000000,0.0000000,0.0213852,0.0000000,0.0000000,0.0014428,0.0000000,0.0000000,0.0000000,0.0213852,0.0000000,0.0000000,0.0014428
28.8748750,1.1502000,,-0.9838882,-0.1787617,0.0000385,0.0028744,0.0003055,0.0037216,0.0002095,,,,2.2919259,-12.5680637,-31.0755386,0.0000000,0.0000000,0.0000000,0.0230040,0.3887819,0.0000000,0.0000000,0.0214184,0.0000000,0.0000000,0.0000000,0.3887819,0.0000000,0.0000000,0.0214184,0.0000000,0.0000000,0.0000000,0.3887819,0.0000000,0.0000000,0.0214184,0.0214184,0.0000000,0.0000000,0.0014428,0.0000000,0.0000000,0.0000000,0.0214184,0.0000000,0.0000000,0.0014428,0.0000000,0.0000000,0.0000000,0.0214184,0.0000000,0.0000000,0.0014428
28.8944900,0.9993500,,-0.9838883,-0.1787616,0.0000474,0.0028603,-0.0017622,0.0024788,0.0047358,,,,2.2919259,-12.5680637,-31.0755386,0.0000000,0.0000000,0.0000000,0.0199870,0.3896381,0.0000000,0.0000000,0.0214472,0.0000000,0.0000000,0.0000000,0.3896381,0.0000000,0.0000000,0.0214472,0.0000000,0.0000000,0.0000000,0.3896381,0.0000000,0.0000000,0.0214472,0.0214472,0.0000000,0.0000000,0.0014428,0.0000000,0.0000000,0.0000000,0.0214472,0.0000000,0.0000000,0.0014428,0.0000000,0.0000000,0.0000000,0.0214472,0.0000000,0.0000000,0.0014428
28.9155210,1.0501001,,-0.9838883,-0.1787617,0.0000452,0.0028567,-0.0018348,0.0060078,0.0030927,,,,2.2919259,-12.5680637,-31.0755386,0.0000000,0.0000000,0.0000000,0.0210020,0.3905389,0.0000000,0.0000000,0.0214775,0.0000000,0.0000000,0.0000000,0.3905389,0.0000000,0.0000000,0.0214775,0.0000000,0.0000000,0.0000000,0.3905389,0.0000000,0.0000000,0.0214775,0.0214775,0.0000000,0.0000000,0.0014428,0.0000000,0.0000000,0.0000000,0.0214775,0.0000000,0.0000000,0.0014428,0.0000000,0.0000000,0.0000000,0.0214775,0.0000000,0.0000000,0.0014428
28.9354850,0.9999000,,-0.9838883,-0.1787616,0.0000628,0.0028718,-0.0062351,0.0026911,0.0054450,,,,2.2919259,-12.5680637,-31.0755386,0.0000000,0.0000000,0.0000000,0.0199980,0.3913980,0.0000000,0.0000000,0.0215064,0.0000000,0.0000000,0.0000000,0.3913980,0.0000000,0.0000000,0.0215064,0.0000000,0.0000000,0.0000000,0.3913980,0.0000000,0.0000000,0.0215064,0.0215064,0.0000000,0.0000000,0.0014428,0.0000000,0.0000000,0.0000000,0.0215064,0.0000000,0.0000000,0.0014428,0.0000000,0.0000000,0.0000000,0.0215064,0.0000000,0.0000000,0.0014428
28.9512870,,1.0200399,-0.9838883,-0.1787616,0.0000628,0.0028718,,,,0.0000000,0.0000000,0.0000000,2.2919259,-12.5680637,-31.0755386,0.0000000,0.0000000,0.0000000,0.1020040,0.3853822,0.0000000,0.0000000,0.0211758,0.0000000,0.0000000,0.0000000,0.3853822,0.0000000,0.0000000,0.0211758,0.0000000,0.0000000,0.0000000,0.3853822,0.0000000,0.0000000,0.0211758,0.0211758,0.0000000,0.0000000,0.0014246,0.0000000,0.0000000,0.0000000,0.0211758,0.0000000,0.0000000,0.0014246,0.0000000,0.0000000,0.0000000,0.0211758,0.0000000,0.0000000,0.0014246
28.9640060,1.1000000,,-0.9838882,-0.1787616,0.0000477,0.0028860,0.0022612,0.0044507,0.0005176,,,,2.2919259,-12.5680637,-31.0755386,0.0000000,0.0000000,0.0000000,0.0220000,0.3863139,0.0000000,0.0000000,0.0212072,0.0000000,0.0000000,0.0000000,0.3863139,0.0000000,0.0000000,0.0212072,0.0000000,0.0000000,0.0000000,0.3863139,0.0000000,0.0000000,0.0212072,0.0212072,0.0000000,0.0000000,0.0014246,0.0000000,0.0000000,0.0000000,0.0212072,0.0000000,0.0000000,0.0014246,0.0000000,0.0000000,0.0000000,0.0212072,0.0000000,0.0000000,0.0014246
28.9786710,1.0500000,,-0.9838881,-0.1787616,0.0000488,0.0029128,-0.0005631,0.0051321,-0.0007254,,,,2.2919259,-12.5680637,-31.0755386,0.0000000,0.0000000,0.0000000,0.0210000,0.3872046,0.0000000,0.0000000,0.0212371,0.0000000,0.0000000,0.0000000,0.3872046,0.0000000,0.0000000,0.0212371,0.0000000,0.0000000,0.0000000,0.3872046,0.0000000,0.0000000,0.0212371,0.0212371,0.0000000,0.0000000,0.0014246,0.0000000,0.0000000,0.0000000,0.0212371,0.0000000,0.0000000,0.0014246,0.0000000,0.0000000,0.0000000,0.0212371,0.0000000,0.0000000,0.0014246
28.9987770,1.0002999,,-0.9838880,-0.1787617,0.0000342,0.0029281,0.0045860,0.0069377,-0.0003703,,,,2.2919259,-12.5680637,-31.0755386,0.0000000,0.0000000,0.0000000,0.0200060,0.3880544,0.0000000,0.0000000,0.0212656,0.0000000,0.0000000,0.0000000,0.3880544,0.0000000,0.0000000,0.0212656,0.0000000,0.0000000,0.0000000,0.3880544,0.0000000,0.0000000,0.0212656,0.0212656,0.0000000,0.0000000,0.0014246,0.0000000,0.0000000,0.0000000,0.0212656,0.0000000,0.0000000,0.0014246,0.0000000,0.0000000,0.0000000,0.0212656,0.0000000,0.0000000,0.0014246
29.0189290,0.9999500,,-0.9838880,-0.1787617,0.0000181,0.0029408,0.0061687,0.0039343,-0.0021459,,,,2.2919259,-12.5680637,-31.0755386,0.0000000,0.0000000,0.0000000,0.0199990,0.3889050,0.0000000,0.0000000,0.0212941,0.0000000,0.0000000,0.0000000,0.3889050,0.0000000,0.0000000,0.0212941,0.0000000,0.0000000,0.0000000,0.3889050,0.0000000,0.0000000,0.0212941,0.0212941,0.0000000,0.0000000,0.0014246,0.0000000,0.0000000,0.0000000,0.0212941,0.0000000,0.0000000,0.0014246,0.0000000,0.0000000,0.0000000,0.0212941,0.0000000,0.0000000,0.0014246
29.0385070,1.0001501,,-0.9838880,-0.1787617,0.0000166,0.0029323,-0.0005930,0.0016772,-0.0018130,,,,2.2919259,-12.5680637,-31.0755386,0.0000000,0.0000000,0.0000000,0.0200030,0.3897569,0.0000000,0.0000000,0.0213226,0.0000000,0.0000000,0.0000000,0.3897569,0.0000000,0.0000000,0.0213226,0.0000000,0.0000000,0.0000000,0.3897569,0.0000000,0.0000000,0.0213226,0.0213226,0.0000000,0.0000000,0.0014247,0.0000000,0.0000000,0.0000000,0.0213226,0.0000000,0.0000000,0.0014247,0.0000000,0.0000000,0.0000000,0.0213226,0.0000000,0.0000000,0.0014247
29.0547220,,1.0000000,-0.9838880,-0.1787617,0.0000166,0.0029323,,,,0.0000000,0.0000000,0.0000000,2.2919259,-12.5680637,-31.0755386,0.0000000,0.0000000,0.0000000,0.1000000,0.3837911,0.0000000,0.0000000,0.0209962,0.0000000,0.0000000,0.0000000,0.3837911,0.0000000,0.0000000,0.0209962,0.0000000,0.0000000,0.0000000,0.3837911,0.0000000,0.0000000,0.0209962,0.0209962,0.0000000,0.0000000,0.0014068,0.0000000,0.0000000,0.0000000,0.0209962,0.0000000,0.0000000,0.0014068,0.0000000,0.0000000,0.0000000,0.0209962,0.0000000,0.0000000,0.0014068
29.0683300,1.0996500,,-0.9838880,-0.1787617,0.0000133,0.0029406,0.0035869,0.0022806,-0.0011583,,,,2.2919259,-12.5680637,-31.0755386,0.0000000,0.0000000,0.0000000,0.0219930,0.3847146,0.0000000,0.0000000,0.0210271,0.0000000,0.0000000,0.0000000,0.3847146,0.0000000,0.0000000,0.0210271,0.0000000,0.0000000,0.0000000,0.3847146,0.0000000,0.0000000,0.0210271,0.0210271,0.0000000,0.0000000,0.0014068,0.0000000,0.0000000,0.0000000,0.0210271,0.0000000,0.0000000,0.0014068,0.0000000,0.0000000,0.0000000,0.0210271,0.0000000,0.0000000,0.0014068
29.0817660,1.0498501,,-0.9838880,-0.1787617,0.0000175,0.0029319,0.0020299,0.0013386,-0.0044930,,,,2.2919259,-12.5680637,-31.0755386,0.0000000,0.0000000,0.0000000,0.0209970,0.3855976,0.0000000,0.0000000,0.0210567,0.0000000,0.0000000,0.0000000,0.3855976,0.0000000,0.0000000,0.0210567,0.0000000,0.0000000,0.0000000,0.3855976,0.0000000,0.0000000,0.0210567,0.0210567,0.0000000,0.0000000,0.0014068,0.0000000,0.0000000,0.0000000,0.0210567,0.0000000,0.0000000,0.0014068,0.0000000,0.0000000,0.0000000,0.0210567,0.0000000,0.0000000,0.0014068
29.1017440,1.0000501,,-0.9838879,-0.1787617,0.0000180,0.0029621,-0.0002286,0.0006922,-0.0039631,,,,2.2919259,-12.5680637,-31.0755386,0.0000000,0.0000000,0.0000000,0.0200010,0.3864399,0.0000000,0.0000000,0.0210848,0.0000000,0.0000000,0.0000000,0.3864399,0.0000000,0.0000000,0.0210848,0.0000000,0.0000000,0.0000000,0.3864399,0.0000000,0.0000000,0.0210848,0.0210848,0.0000000,0.0000000,0.0014068,0.0000000,0.0000000,0.0000000,0.0210848,0.0000000,0.0000000,0.0014068,0.0000000,0.0000000,0.0000000,0.0210848,0.0000000,0.0000000,0.0014068
29.1217370,1.0005001,,-0.9838878,-0.1787617,0.0000250,0.0029945,0.0006029,-0.0010577,-0.0000361,,,,2.2919259,-12.5680637,-31.0755386,0.0000000,0.0000000,0.0000000,0.0200100,0.3872837,0.0000000,0.0000000,0.0211130,0.0000000,0.0000000,0.0000000,0.3872837,0.0000000,0.0000000,0.0211130,0.0000000,0.0000000,0.0000000,0.3872837,0.0000000,0.0000000,0.0211130,0.0211130,0.0000000,0.0000000,0.0014068,0.0000000,0.0000000,0.0000000,0.0211130,0.0000000,0.0000000,0.0014068,0.0000000,0.0000000,0.0000000,0.0211130,0.0000000,0.0000000,0.0014068
29.1419920,,1.0000100,-0.9838878,-0.1787616,0.0000349,0.0030149,,,,0.0000000,0.0000000,0.0000000,2.2919259,-12.5680637,-31.0755386,0.0000000,0.0000000,0.0000000,0.1000010,0.3813928,0.0000000,0.0000000,0.0207918,0.0000000,0.0000000,0.0000000,0.3813928,0.0000000,0.0000000,0.0207918,0.0000000,0.0000000,0.0000000,0.3813928,0.0000000,0.0000000,0.0207918,0.0207918,0.0000000,0.0000000,0.0013893,0.0000000,0.0000000,0.0000000,0.0207918,0.0000000,0.0000000,0.0013893,0.0000000,0.0000000,0.0000000,0.0207918,0.0000000,0.0000000,0.0013893
29.1569870,1.0997500,,-0.9838878,-0.1787616,0.0000349,0.0030149,0.0049325,0.0017371,-0.0041761,,,,2.2919259,-12.5680637,-31.0755386,0.0000000,0.0000000,0.0000000,0.0219950,0.3823075,0.0000000,0.0000000,0.0208224,0.0000000,0.0000000,0.0000000,0.3823075,0.0000000,0.0000000,0.0208224,0.0000000,0.0000000,0.0000000,0.3823075,0.0000000,0.0000000,0.0208224,0.0208224,0.0000000,0.0000000,0.0013893,0.0000000,0.0000000,0.0000000,0.0208224,0.0000000,0.0000000,0.0013893,0.0000000,0.0000000,0.0000000,0.0208224,0.0000000,0.0000000,0.0013893
29.1716640,1.3997000,,-0.9838878,-0.1787617,0.0000289,0.0030077,0.0026875,0.0021198,0.0027872,,,,2.2919259,-12.5680637,-31.0755386,0.0000000,0.0000000,0.0000000,0.0279940,0.3834733,0.0000000,0.0000000,0.0208613,0.0000000,0.0000000,0.0000000,0.3834733,0.0000000,0.0000000,0.0208613,0.0000000,0.0000000,0.0000000,0.3834733,0.0000000,0.0000000,0.0208613,0.0208613,0.0000000,0.0000000,0.0013893,0.0000000,0.0000000,0.0000000,0.0208613,0.0000000,0.0000000,0.0013893,0.0000000,0.0000000,0.0000000,0.0208613,0.0000000,0.0000000,0.0013893
29.1926450,1.0502001,,-0.9838878,-0.1787616,0.0000399,0.0029976,-0.0008459,0.0059656,-0.0044734,,,,2.2919259,-12.5680637,-31.0755386,0.0000000,0.0000000,0.0000000,0.0210040,0.3843496,0.0000000,0.0000000,0.0208905,0.0000000,0.0000000,0.0000000,0.3843496,0.0000000,0.0000000,0.0208905,0.0000000,0.0000000,0.0000000,0.3843496,0.0000000,0.0000000,0.0208905,0.0208904,0.0000000,0.0000000,0.0013893,0.0000000,0.0000000,0.0000000,0.0208904,0.0000000,0.0000000,0.0013893,0.0000000,0.0000000,0.0000000,0.0208904,0.0000000,0.0000000,0.0013893
29.2138910,1.0500000,,-0.9838878,-0.1787616,0.0000547,0.0029962,0.0022855,0.0052106,-0.0017561,,,,2.2919259,-12.5680637,-31.0755386,0.0000000,0.0000000,0.0000000,0.0210000,0.3852270,0.0000000,0.0000000,0.0209196,0.0000000,0.0000000,0.0000000,0.3852270,0.0000000,0.0000000,0.0209196,0.0000000,0.0000000,0.0000000,0.3852270,0.0000000,0.0000000,0.0209196,0.0209196,0.0000000,0.0000000,0.0013893,0.0000000,0.0000000,0.0000000,0.0209196,0.0000000,0.0000000,0.0013893,0.0000000,0.0000000,0.0000000,0.0209196,0.0000000,0.0000000,0.0013893
29.2339110,1.0001000,,-0.9838879,-0.1787616,0.0000732,0.0029808,0.0021727,0.0082282,0.0032647,,,,2.2919259,-12.5680637,-31.0755386,0.0000000,0.0000000,0.0000000,0.0200020,0.3860639,0.0000000,0.0000000,0.0209474,0.0000000,0.0000000,0.0000000,0.3860639,0.0000000,0.0000000,0.0209474,0.0000000,0.0000000,0.0000000,0.3860639,0.0000000,0.0000000,0.0209474,0.0209474,0.0000000,0.0000000,0.0013893,0.0000000,0.0000000,0.0000000,0.0209474,0.0000000,0.0000000,0.0013893,0.0000000,0.0000000,0.0000000,0.0209474,0.0000000,0.0000000,0.0013893
29.2496000,,1.0199300,-0.9838879,-0.1787616,0.0000732,0.0029808,,,,0.0000000,0.0000000,0.0000000,2.2919259,-12.5680637,-31.0755386,0.0000000,0.0000000,0.0000000,0.1019930,0.3802098,0.0000000,0.0000000,0.0206298,0.0000000,0.0000000,0.0000000,0.3802098,0.0000000,0.0000000,0.0206298,0.0000000,0.0000000,0.0000000,0.3802098,0.0000000,0.0000000,0.0206298,0.0206298,0.0000000,0.0000000,0.0013721,0.0000000,0.0000000,0.0000000,0.0206298,0.0000000,0.0000000,0.0013721,0.0000000,0.0000000,0.0000000,0.0206298,0.0000000,0.0000000,0.0013721
29.2631600,1.0001501,,-0.9838880,-0.1787615,0.0001013,0.0029609,0.0023986,0.0009326,0.0038220,,,,2.2919259,-12.5680637,-31.0755386,0.0000000,0.0000000,0.0000000,0.0200030,0.3810351,0.0000000,0.0000000,0.0206572,0.0000000,0.0000000,0.0000000,0.3810351,0.0000000,0.0000000,0.0206572,0.0000000,0.0000000,0.0000000,0.3810351,0.0000000,0.0000000,0.0206572,0.0206572,0.0000000,0.0000000,0.0013721,0.0000000,0.0000000,0.0000000,0.0206572,0.0000000,0.0000000,0.0013721,0.0000000,0.0000000,0.0000000,0.0206572,0.0000000,0.0000000,0.0013721
29.2769050,1.1496500,,-0.9838880,-0.1787614,0.0001319,0.0029410,-0.0047745,-0.0041953,0.0031241,,,,2.2919259,-12.5680637,-31.0755386,0.0000000,0.0000000,0.0000000,0.0229930,0.3819850,0.0000000,0.0000000,0.0206888,0.0000000,0.0000000,0.0000000,0.3819850,0.0000000,0.0000000,0.0206888,0.0000000,0.0000000,0.0000000,0.3819850,0.0000000,0.0000000,0.0206888,0.0206888,0.0000000,0.0000000,0.0013721,0.0000000,0.0000000,0.0000000,0.0206888,0.0000000,0.0000000,0.0013721,0.0000000,0.0000000,0.0000000,0.0206888,0.0000000,0.0000000,0.0013721
29.2980090,1.0500500,,-0.9838880,-0.1787614,0.0001497,0.0029460,-0.0000603,-0.0035548,-0.0055257,,,,2.2919259,-12.5680637,-31.0755386,0.0000000,0.0000000,0.0000000,0.0210010,0.3828540,0.0000000,0.0000000,0.0207176,0.0000000,0.0000000,0.0000000,0.3828540,0.0000000,0.0000000,0.0207176,0.0000000,0.0000000,0.0000000,0.3828540,0.0000000,0.0000000,0.0207176,0.0207176,0.0000000,0.0000000,0.0013721,0.0000000,0.0000000,0.0000000,0.0207176,0.0000000,0.0000000,0.0013721,0.0000000,0.0000000,0.0000000,0.0207176,0.0000000,0.0000000,0.0013721
29.3178670,0.9998500,,-0.9838881,-0.1787613,0.0001633,0.0029333,-0.0055004,0.0021059,-0.0015498,,,,2.2919259,-12.5680637,-31.0755386,0.0000000,0.0000000,0.0000000,0.0199970,0.3836826,0.0000000,0.0000000,0.0207450,0.0000000,0.0000000,0.0000000,0.3836826,0.0000000,0.0000000,0.0207450,0.0000000,0.0000000,0.0000000,0.3836826,0.0000000,0.0000000,0.0207450,0.0207450,0.0000000,0.0000000,0.0013721,0.0000000,0.0000000,0.0000000,0.0207450,0.0000000,0.0000000,0.0013721,0.0000000,0.0000000,0.0000000,0.0207450,0.0000000,0.0000000,0.0013721
29.3377670,1.0001501,,-0.9838881,-0.1787613,0.0001642,0.0029200,-0.0023687,0.0058976,-0.0042005,,,,2.2919259,-12.5680637,-31.0755386,0.0000000,0.0000000,0.0000000,0.0200030,0.3845125,0.0000000,0.0000000,0.0207725,0.0000000,0.0000000,0.0000000,0.3845125,0.0000000,0.0000000,0.0207725,0.0000000,0.0000000,0.0000000,0.3845125,0.0000000,0.0000000,0.0207725,0.0207725,0.0000000,0.0000000,0.0013721,0.0000000,0.0000000,0.0000000,0.0207725,0.0000000,0.0000000,0.0013721,0.0000000,0.0000000,0.0000000,0.0207725,0.0000000,0.0000000,0.0013721
29.3535050,,1.0200200,-0.9838881,-0.1787613,0.0001642,0.0029200,,,,0.0000000,0.0000000,0.0000000,2.2919259,-12.5680637,-31.0755386,0.0000000,0.0000000,0.0000000,0.1020020,0.3787050,0.0000000,0.0000000,0.0204587,0.0000000,0.0000000,0.0000000,0.3787050,0.0000000,0.0000000,0.0204587,0.0000000,0.0000000,0.0000000,0.3787050,0.0000000,0.0000000,0.0204587,0.0204587,0.0000000,0.0000000,0.0013552,0.0000000,0.0000000,0.0000000,0.0204587,0.0000000,0.0000000,0.0013552,0.0000000,0.0000000,0.0000000,0.0204587,0.0000000,0.0000000,0.0013552
29.3672990,0.9998500,,-0.9838881,-0.1787613,0.0001797,0.0029209,-0.0002917,-0.0019493,-0.0067465,,,,2.2919259,-12.5680637,-31.0755386,0.0000000,0.0000000,0.0000000,0.0199970,0.3795232,0.0000000,0.0000000,0.0204858,0.0000000,0.0000000,0.0000000,0.3795232,0.0000000,0.0000000,0.0204858,0.0000000,0.0000000,0.0000000,0.3795232,0.0000000,0.0000000,0.0204858,0.0204858,0.0000000,0.0000000,0.0013552,0.0000000,0.0000000,0.0000000,0.0204858,0.0000000,0.0000000,0.0013552,0.0000000,0.0000000,0.0000000,0.0204858,0.0000000,0.0000000,0.0013552
29.3806580,1.1500500,,-0.9838881,-0.1787613,0.0001648,0.0029037,-0.0007562,-0.0007915,-0.0031368,,,,2.2919259,-12.5680637,-31.0755386,0.0000000,0.0000000,0.0000000,0.0230010,0.3804656,0.0000000,0.0000000,0.0205170,0.0000000,0.0000000,0.0000000,0.3804656,0.0000000,0.0000000,0.0205170,0.0000000,0.0000000,0.0000000,0.3804656,0.0000000,0.0000000,0.0205170,0.0205170,0.0000000,0.0000000,0.0013552,0.0000000,0.0000000,0.0000000,0.0205170,0.0000000,0.0000000,0.0013552,0.0000000,0.0000000,0.0000000,0.0205170,0.0000000,0.0000000,0.0013552
29.4018130,1.0503500,,-0.9838882,-0.1787614,0.0001507,0.0028858,-0.0022168,0.0002604,0.0035509,,,,2.2919259,-12.5680637,-31.0755386,0.0000000,0.0000000,0.0000000,0.0210070,0.3813276,0.0000000,0.0000000,0.0205455,0.0000000,0.0000000,0.0000000,0.3813276,0.0000000,0.0000000,0.0205455,0.0000000,0.0000000,0.0000000,0.3813276,0.0000000,0.0000000,0.0205455,0.0205455,0.0000000,0.0000000,0.0013552,0.0000000,0.0000000,0.0000000,0.0205455,0.0000000,0.0000000,0.0013552,0.0000000,0.0000000,0.0000000,0.0205455,0.0000000,0.0000000,0.0013552
29.4218370,0.9997000,,-0.9838883,-0.1787615,0.0001317,0.0028595,0.0038736,0.0085607,0.0010354,,,,2.2919259,-12.5680637,-31.0755386,0.0000000,0.0000000,0.0000000,0.0199940,0.3821492,0.0000000,0.0000000,0.0205726,0.0000000,0.0000000,0.0000000,0.3821492,0.0000000,0.0000000,0.0205726,0.0000000,0.0000000,0.0000000,0.3821492,0.0000000,0.0000000,0.0205726,0.0205726,0.0000000,0.0000000,0.0013552,0.0000000,0.0000000,0.0000000,0.0205726,0.0000000,0.0000000,0.0013552,0.0000000,0.0000000,0.0000000,0.0205726,0.0000000,0.0000000,0.0013552
29.4417160,1.0006500,,-0.9838883,-0.1787615,0.0001235,0.0028754,0.0012959,0.0034869,0.0005101,,,,2.2919259,-12.5680637,-31.0755386,0.0000000,0.0000000,0.0000000,0.0200130,0.3829726,0.0000000,0.0000000,0.0205997,0.0000000,0.0000000,0.0000000,0.3829726,0.0000000,0.0000000,0.0205997,0.0000000,0.0000000,0.0000000,0.3829726,0.0000000,0.0000000,0.0205997,0.0205997,0.0000000,0.0000000,0.0013552,0.0000000,0.0000000,0.0000000,0.0205997,0.0000000,0.0000000,0.0013552,0.0000000,0.0000000,0.0000000,0.0205997,0.0000000,0.0000000,0.0013552
29.4577130,,1.0200000,-0.9838883,-0.1787615,0.0001235,0.0028754,,,,0.0000000,0.0000000,0.0000000,2.2919259,-12.5680637,-31.0755386,0.0000000,0.0000000,0.0000000,0.1020000,0.3772112,0.0000000,0.0000000,0.0202898,0.0000000,0.0000000,0.0000000,0.3772112,0.0000000,0.0000000,0.0202898,0.0000000,0.0000000,0.0000000,0.3772112,0.0000000,0.0000000,0.0202898,0.0202898,0.0000000,0.0000000,0.0013385,0.0000000,0.0000000,0.0000000,0.0202898,0.0000000,0.0000000,0.0013385,0.0000000,0.0000000,0.0000000,0.0202898,0.0000000,0.0000000,0.0013385
29.4713780,1.0994000,,-0.9838881,-0.1787615,0.0001123,0.0029013,0.0024256,0.0004922,-0.0024381,,,,2.2919259,-12.5680637,-31.0755386,0.0000000,0.0000000,0.0000000,0.0219880,0.3781034,0.0000000,0.0000000,0.0203192,0.0000000,0.0000000,0.0000000,0.3781034,0.0000000,0.0000000,0.0203192,0.0000000,0.0000000,0.0000000,0.3781034,0.0000000,0.0000000,0.0203192,0.0203192,0.0000000,0.0000000,0.0013385,0.0000000,0.0000000,0.0000000,0.0203192,0.0000000,0.0000000,0.0013385,0.0000000,0.0000000,0.0000000,0.0203192,0.0000000,0.0000000,0.0013385
29.4846860,1.0498501,,-0.9838881,-0.1787615,0.0001117,0.0028867,0.0035016,0.0057774,0.0012147,,,,2.2919259,-12.5680637,-31.0755386,0.0000000,0.0000000,0.0000000,0.0209970,0.3789567,0.0000000,0.0000000,0.0203473,0.0000000,0.0000000,0.0000000,0.3789567,0.0000000,0.0000000,0.0203473,0.0000000,0.0000000,0.0000000,0.3789567,0.0000000,0.0000000,0.0203473,0.0203473,0.0000000,0.0000000,0.0013385,0.0000000,0.0000000,0.0000000,0.0203473,0.0000000,0.0000000,0.0013385,0.0000000,0.0000000,0.0000000,0.0203473,0.0000000,0.0000000,0.0013385
29.5050350,1.0003999,,-0.9838883,-0.1787615,0.0001170,0.0028677,0.0018576,0.0003481,-0.0028182,,,,2.2919259,-12.5680637,-31.0755386,0.0000000,0.0000000,0.0000000,0.0200080,0.3797709,0.0000000,0.0000000,0.0203741,0.0000000,0.0000000,0.0000000,0.3797709,0.0000000,0.0000000,0.0203741,0.0000000,0.0000000,0.0000000,0.3797709,0.0000000,0.0000000,0.0203741,0.0203741,0.0000000,0.0000000,0.0013385,0.0000000,0.0000000,0.0000000,0.0203741,0.0000000,0.0000000,0.0013385,0.0000000,0.0000000,0.0000000,0.0203741,0.0000000,0.0000000,0.0013385
29.5247750,0.9999500,,-0.9838883,-0.1787615,0.0001286,0.0028546,-0.0016347,-0.0026183,-0.0060554,,,,2.2919259,-12.5680637,-31.0755386,0.0000000,0.0000000,0.0000000,0.0199990,0.3805858,0.0000000,0.0000000,0.0204009,0.0000000,0.0000000,0.0000000,0.3805858,0.0000000,0.0000000,0.0204009,0.0000000,0.0000000,0.0000000,0.3805858,0.0000000,0.0000000,0.0204009,0.0204009,0.0000000,0.0000000,0.0013386,0.0000000,0.0000000,0.0000000,0.0204009,0.0000000,0.0000000,0.0013386,0.0000000,0.0000000,0.0000000,0.0204009,0.0000000,0.0000000,0.0013386
29.5448770,0.9997000,,-0.9838883,-0.1787615,0.0001075,0.0028400,0.0048666,-0.0009506,-0.0064533,,,,2.2919259,-12.5680637,-31.0755386,0.0000000,0.0000000,0.0000000,0.0199940,0.3814016,0.0000000,0.0000000,0.0204276,0.0000000,0.0000000,0.0000000,0.3814016,0.0000000,0.0000000,0.0204276,0.0000000,0.0000000,0.0000000,0.3814016,0.0000000,0.0000000,0.0204276,0.0204276,0.0000000,0.0000000,0.0013386,0.0000000,0.0000000,0.0000000,0.0204276,0.0000000,0.0000000,0.0013386,0.0000000,0.0000000,0.0000000,0.0204276,0.0000000,0.0000000,0.0013386
29.5606250,,0.9999700,-0.9838883,-0.1787615,0.0001075,0.0028400,,,,0.0000000,0.0000000,0.0000000,2.2919259,-12.5680637,-31.0755386,0.0000000,0.0000000,0.0000000,0.0999970,0.3756870,0.0000000,0.0000000,0.0201216,0.0000000,0.0000000,0.0000000,0.3756870,0.0000000,0.0000000,0.0201216,0.0000000,0.0000000,0.0000000,0.3756870,0.0000000,0.0000000,0.0201216,0.0201216,0.0000000,0.0000000,0.0013222,0.0000000,0.0000000,0.0000000,0.0201216,0.0000000,0.0000000,0.0013222,0.0000000,0.0000000,0.0000000,0.0201216,0.0000000,0.0000000,0.0013222
29.5744900,1.0000000,,-0.9838883,-0.1787616,0.0000909,0.0028529,0.0034633,0.0026070,-0.0017694,,,,2.2919259,-12.5680637,-31.0755386,0.0000000,0.0000000,0.0000000,0.0200000,0.3764919,0.0000000,0.0000000,0.0201480,0.0000000,0.0000000,0.0000000,0.3764919,0.0000000,0.0000000,0.0201480,0.0000000,0.0000000,0.0000000,0.3764919,0.0000000,0.0000000,0.0201480,0.0201480,0.0000000,0.0000000,0.0013222,0.0000000,0.0000000,0.0000000,0.0201480,0.0000000,0.0000000,0.0013222,0.0000000,0.0000000,0.0000000,0.0201480,0.0000000,0.0000000,0.0013222
29.5876600,1.1499500,,-0.9838883,-0.1787615,0.0001051,0.0028560,-0.0025637,0.0014561,-0.0028455,,,,2.2919259,-12.5680637,-31.0755386,0.0000000,0.0000000,0.0000000,0.0229990,0.3774186,0.0000000,0.0000000,0.0201784,0.0000000,0.0000000,0.0000000,0.3774186,0.0000000,0.0000000,0.0201784,0.0000000,0.0000000,0.0000000,0.3774186,0.0000000,0.0000000,0.0201784,0.0201784,0.0000000,0.0000000,0.0013222,0.0000000,0.0000000,0.0000000,0.0201784,0.0000000,0.0000000,0.0013222,0.0000000,0.0000000,0.0000000,0.0201784,0.0000000,0.0000000,0.0013222
29.6089220,1.0502001,,-0.9838883,-0.1787615,0.0001041,0.0028556,-0.0019304,0.0028261,-0.0026511,,,,2.2919259,-12.5680637,-31.0755386,0.0000000,0.0000000,0.0000000,0.0210040,0.3782663,0.0000000,0.0000000,0.0202062,0.0000000,0.0000000,0.0000000,0.3782663,0.0000000,0.0000000,0.0202062,0.0000000,0.0000000,0.0000000,0.3782663,0.0000000,0.0000000,0.0202062,0.0202062,0.0000000,0.0000000,0.0013222,0.0000000,0.0000000,0.0000000,0.0202062,0.0000000,0.0000000,0.0013222,0.0000000,0.0000000,0.0000000,0.0202062,0.0000000,0.0000000,0.0013222
29.6287270,1.0001000,,-0.9838883,-0.1787615,0.0001255,0.0028612,-0.0040169,0.0032899,0.0001317,,,,2.2919259,-12.5680637,-31.0755386,0.0000000,0.0000000,0.0000000,0.0200020,0.3790746,0.0000000,0.0000000,0.0202326,0.0000000,0.0000000,0.0000000,0.3790746,0.0000000,0.0000000,0.0202326,0.0000000,0.0000000,0.0000000,0.3790746,0.0000000,0.0000000,0.0202326,0.0202326,0.0000000,0.0000000,0.0013222,0.0000000,0.0000000,0.0000000,0.0202326,0.0000000,0.0000000,0.0013222,0.0000000,0.0000000,0.0000000,0.0202326,0.0000000,0.0000000,0.0013222
29.6490120,,1.0100100,-0.9838883,-0.1787614,0.0001507,0.0028603,,,,0.0000000,0.0000000,0.0000000,2.2919259,-12.5680637,-31.0755386,0.0000000,0.0000000,0.0000000,0.1010010,0.3734290,0.0000000,0.0000000,0.0199313,0.0000000,0.0000000,0.0000000,0.3734290,0.0000000,0.0000000,0.0199313,0.0000000,0.0000000,0.0000000,0.3734290,0.0000000,0.0000000,0.0199313,0.0199313,0.0000000,0.0000000,0.0013061,0.0000000,0.0000000,0.0000000,0.0199313,0.0000000,0.0000000,0.0013061,0.0000000,0.0000000,0.0000000,0.0199313,0.0000000,0.0000000,0.0013061
29.6637470,1.0002501,,-0.9838883,-0.1787614,0.0001507,0.0028603,-0.0030766,-0.0055191,-0.0036039,,,,2.2919259,-12.5680637,-31.0755386,0.0000000,0.0000000,0.0000000,0.0200050,0.3742265,0.0000000,0.0000000,0.0199574,0.0000000,0.0000000,0.0000000,0.3742265,0.0000000,0.0000000,0.0199574,0.0000000,0.0000000,0.0000000,0.3742265,0.0000000,0.0000000,0.0199574,0.0199574,0.0000000,0.0000000,0.0013061,0.0000000,0.0000000,0.0000000,0.0199574,0.0000000,0.0000000,0.0013061,0.0000000,0.0000000,0.0000000,0.0199574,0.0000000,0.0000000,0.0013061
29.6765580,1.3994501,,-0.9838883,-0.1787615,0.0001372,0.0028608,-0.0009508,0.0010552,0.0025850,,,,2.2919259,-12.5680637,-31.0755386,0.0000000,0.0000000,0.0000000,0.0279890,0.3753436,0.0000000,0.0000000,0.0199940,0.0000000,0.0000000,0.0000000,0.3753436,0.0000000,0.0000000,0.0199940,0.0000000,0.0000000,0.0000000,0.3753436,0.0000000,0.0000000,0.0199940,0.0199940,0.0000000,0.0000000,0.0013061,0.0000000,0.0000000,0.0000000,0.0199940,0.0000000,0.0000000,0.0013061,0.0000000,0.0000000,0.0000000,0.0199940,0.0000000,0.0000000,0.0013061
29.6968380,1.0001501,,-0.9838883,-0.1787614,0.0001470,0.0028752,-0.0003457,-0.0029438,-0.0023773,,,,2.2919259,-12.5680637,-31.0755386,0.0000000,0.0000000,0.0000000,0.0200030,0.3761435,0.0000000,0.0000000,0.0200201,0.0000000,0.0000000,0.0000000,0.3761435,0.0000000,0.0000000,0.0200201,0.0000000,0.0000000,0.0000000,0.3761435,0.0000000,0.0000000,0.0200201,0.0200201,0.0000000,0.0000000,0.0013061,0.0000000,0.0000000,0.0000000,0.0200201,0.0000000,0.0000000,0.0013061,0.0000000,0.0000000,0.0000000,0.0200201,0.0000000,0.0000000,0.0013061
29.7168080,1.0003500,,-0.9838881,-0.1787614,0.0001494,0.0029034,0.0036037,-0.0036844,0.0019776,,,,2.2919259,-12.5680637,-31.0755386,0.0000000,0.0000000,0.0000000,0.0200070,0.3769446,0.0000000,0.0000000,0.0200462,0.0000000,0.0000000,0.0000000,0.3769446,0.0000000,0.0000000,0.0200462,0.0000000,0.0000000,0.0000000,0.3769446,0.0000000,0.0000000,0.0200462,0.0200462,0.0000000,0.0000000,0.0013061,0.0000000,0.0000000,0.0000000,0.0200462,0.0000000,0.0000000,0.0013061,0.0000000,0.0000000,0.0000000,0.0200462,0.0000000,0.0000000,0.0013061
29.7378100,1.0496000,,-0.9838881,-0.1787614,0.0001621,0.0029267,-0.0007464,-0.0028111,0.0017136,,,,2.2919259,-12.5680637,-31.0755386,0.0000000,0.0000000,0.0000000,0.0209920,0.3777862,0.0000000,0.0000000,0.0200737,0.0000000,0.0000000,0.0000000,0.3777862,0.0000000,0.0000000,0.0200737,0.0000000,0.0000000,0.0000000,0.3777862,0.0000000,0.0000000,0.0200737,0.0200737,0.0000000,0.0000000,0.0013061,0.0000000,0.0000000,0.0000000,0.0200737,0.0000000,0.0000000,0.0013061,0.0000000,0.0000000,0.0000000,0.0200737,0.0000000,0.0000000,0.0013061
29.7539680,,1.0000401,-0.9838881,-0.1787614,0.0001621,0.0029267,,,,0.0000000,0.0000000,0.0000000,2.2919259,-12.5680637,-31.0755386,0.0000000,0.0000000,0.0000000,0.1000040,0.3721786,0.0000000,0.0000000,0.0197757,0.0000000,0.0000000,0.0000000,0.3721786,0.0000000,0.0000000,0.0197757,0.0000000,0.0000000,0.0000000,0.3721786,0.0000000,0.0000000,0.0197757,0.0197757,0.0000000,0.0000000,0.0012903,0.0000000,0.0000000,0.0000000,0.0197757,0.0000000,0.0000000,0.0012903,0.0000000,0.0000000,0.0000000,0.0197757,0.0000000,0.0000000,0.0012903
29.7664150,1.0999500,,-0.9838881,-0.1787613,0.0001921,0.0029190,0.0015265,0.0005247,-0.0003715,,,,2.2919259,-12.5680637,-31.0755386,0.0000000,0.0000000,0.0000000,0.0219990,0.3730487,0.0000000,0.0000000,0.0198041,0.0000000,0.0000000,0.0000000,0.3730487,0.0000000,0.0000000,0.0198041,0.0000000,0.0000000,0.0000000,0.3730487,0.0000000,0.0000000,0.0198041,0.0198041,0.0000000,0.0000000,0.0012903,0.0000000,0.0000000,0.0000000,0.0198041,0.0000000,0.0000000,0.0012903,0.0000000,0.0000000,0.0000000,0.0198041,0.0000000,0.0000000,0.0012903
29.7804020,0.9756500,,-0.9838881,-0.1787612,0.0002126,0.0029121,0.0007175,0.0026809,0.0037128,,,,2.2919259,-12.5680637,-31.0755386,0.0000000,0.0000000,0.0000000,0.0195130,0.3738216,0.0000000,0.0000000,0.0198293,0.0000000,0.0000000,0.0000000,0.3738216,0.0000000,0.0000000,0.0198293,0.0000000,0.0000000,0.0000000,0.3738216,0.0000000,0.0000000,0.0198293,0.0198293,0.0000000,0.0000000,0.0012903,0.0000000,0.0000000,0.0000000,0.0198293,0.0000000,0.0000000,0.0012903,0.0000000,0.0000000,0.0000000,0.0198293,0.0000000,0.0000000,0.0012903
29.7997020,1.0246999,,-0.9838882,-0.1787612,0.0002292,0.0028955,0.0005800,0.0044685,-0.0005926,,,,2.2919259,-12.5680637,-31.0755386,0.0000000,0.0000000,0.0000000,0.0204940,0.3746343,0.0000000,0.0000000,0.0198557,0.0000000,0.0000000,0.0000000,0.3746343,0.0000000,0.0000000,0.0198557,0.0000000,0.0000000,0.0000000,0.3746343,0.0000000,0.0000000,0.0198557,0.0198557,0.0000000,0.0000000,0.0012903,0.0000000,0.0000000,0.0000000,0.0198557,0.0000000,0.0000000,0.0012903,0.0000000,0.0000000,0.0000000,0.0198557,0.0000000,0.0000000,0.0012903
29.8197930,0.9996500,,-0.9838882,-0.1787612,0.0002404,0.0028935,-0.0090102,0.0004871,-0.0005481,,,,2.2919259,-12.5680637,-31.0755386,0.0000000,0.0000000,0.0000000,0.0199930,0.3754283,0.0000000,0.0000000,0.0198815,0.0000000,0.0000000,0.0000000,0.3754283,0.0000000,0.0000000,0.0198815,0.0000000,0.0000000,0.0000000,0.3754283,0.0000000,0.0000000,0.0198815,0.0198815,0.0000000,0.0000000,0.0012903,0.0000000,0.0000000,0.0000000,0.0198815,0.0000000,0.0000000,0.0012903,0.0000000,0.0000000,0.0000000,0.0198815,0.0000000,0.0000000,0.0012903
29.8396090,1.0000501,,-0.9838883,-0.1787612,0.0002372,0.0028545,-0.0040397,0.0050119,-0.0022348,,,,2.2919259,-12.5680637,-31.0755386,0.0000000,0.0000000,0.0000000,0.0200010,0.3762236,0.0000000,0.0000000,0.0199073,0.0000000,0.0000000,0.0000000,0.3762236,0.0000000,0.0000000,0.0199073,0.0000000,0.0000000,0.0000000,0.3762236,0.0000000,0.0000000,0.0199073,0.0199073,0.0000000,0.0000000,0.0012903,0.0000000,0.0000000,0.0000000,0.0199073,0.0000000,0.0000000,0.0012903,0.0000000,0.0000000,0.0000000,0.0199073,0.0000000,0.0000000,0.0012903
29.8556800,,0.9999800,-0.9838883,-0.1787612,0.0002372,0.0028545,,,,0.0000000,0.0000000,0.0000000,2.2919259,-12.5680637,-31.0755386,0.0000000,0.0000000,0.0000000,0.0999980,0.3706619,0.0000000,0.0000000,0.0196130,0.0000000,0.0000000,0.0000000,0.3706619,0.0000000,0.0000000,0.0196130,0.0000000,0.0000000,0.0000000,0.3706619,0.0000000,0.0000000,0.0196130,0.0196130,0.0000000,0.0000000,0.0012747,0.0000000,0.0000000,0.0000000,0.0196130,0.0000000,0.0000000,0.0012747,0.0000000,0.0000000,0.0000000,0.0196130,0.0000000,0.0000000,0.0012747
29.8692700,1.0001000,,-0.9838884,-0.1787612,0.0002381,0.0028327,-0.0032635,0.0058095,0.0040019,,,,2.2919259,-12.5680637,-31.0755386,0.0000000,0.0000000,0.0000000,0.0200020,0.3714465,0.0000000,0.0000000,0.0196385,0.0000000,0.0000000,0.0000000,0.3714465,0.0000000,0.0000000,0.0196385,0.0000000,0.0000000,0.0000000,0.3714465,0.0000000,0.0000000,0.0196385,0.0196385,0.0000000,0.0000000,0.0012747,0.0000000,0.0000000,0.0000000,0.0196385,0.0000000,0.0000000,0.0012747,0.0000000,0.0000000,0.0000000,0.0196385,0.0000000,0.0000000,0.0012747
29.8825520,1.1497999,,-0.9838884,-0.1787612,0.0002267,0.0028173,-0.0011816,0.0020426,0.0002844,,,,2.2919259,-12.5680637,-31.0755386,0.0000000,0.0000000,0.0000000,0.0229960,0.3723498,0.0000000,0.0000000,0.0196678,0.0000000,0.0000000,0.0000000,0.3723498,0.0000000,0.0000000,0.0196678,0.0000000,0.0000000,0.0000000,0.3723498,0.0000000,0.0000000,0.0196678,0.0196678,0.0000000,0.0000000,0.0012748,0.0000000,0.0000000,0.0000000,0.0196678,0.0000000,0.0000000,0.0012748,0.0000000,0.0000000,0.0000000,0.0196678,0.0000000,0.0000000,0.0012748
29.9038040,1.0501500,,-0.9838885,-0.1787612,0.0002273,0.0027962,0.0040250,-0.0001078,0.0028201,,,,2.2919259,-12.5680637,-31.0755386,0.0000000,0.0000000,0.0000000,0.0210030,0.3731759,0.0000000,0.0000000,0.0196946,0.0000000,0.0000000,0.0000000,0.3731759,0.0000000,0.0000000,0.0196946,0.0000000,0.0000000,0.0000000,0.3731759,0.0000000,0.0000000,0.0196946,0.0196946,0.0000000,0.0000000,0.0012748,0.0000000,0.0000000,0.0000000,0.0196946,0.0000000,0.0000000,0.0012748,0.0000000,0.0000000,0.0000000,0.0196946,0.0000000,0.0000000,0.0012748
29.9239720,1.0001000,,-0.9838885,-0.1787613,0.0002160,0.0027770,0.0022109,-0.0007177,-0.0022597,,,,2.2919259,-12.5680637,-31.0755386,0.0000000,0.0000000,0.0000000,0.0200020,0.3739638,0.0000000,0.0000000,0.0197201,0.0000000,0.0000000,0.0000000,0.3739638,0.0000000,0.0000000,0.0197201,0.0000000,0.0000000,0.0000000,0.3739638,0.0000000,0.0000000,0.0197201,0.0197201,0.0000000,0.0000000,0.0012748,0.0000000,0.0000000,0.0000000,0.0197201,0.0000000,0.0000000,0.0012748,0.0000000,0.0000000,0.0000000,0.0197201,0.0000000,0.0000000,0.0012748
29.9437940,1.0000000,,-0.9838886,-0.1787612,0.0002388,0.0027604,0.0018531,-0.0017626,-0.0013740,,,,2.2919259,-12.5680637,-31.0755386,0.0000000,0.0000000,0.0000000,0.0200000,0.3747526,0.0000000,0.0000000,0.0197456,0.0000000,0.0000000,0.0000000,0.3747526,0.0000000,0.0000000,0.0197456,0.0000000,0.0000000,0.0000000,0.3747526,0.0000000,0.0000000,0.0197456,0.0197456,0.0000000,0.0000000,0.0012748,0.0000000,0.0000000,0.0000000,0.0197456,0.0000000,0.0000000,0.0012748,0.0000000,0.0000000,0.0000000,0.0197456,0.0000000,0.0000000,0.0012748
29.9597920,,1.0200300,-0.9838886,-0.1787612,0.0002388,0.0027604,,,,0.0000000,0.0000000,0.0000000,2.2919259,-12.5680637,-31.0755386,0.0000000,0.0000000,0.0000000,0.1020030,0.3692341,0.0000000,0.0000000,0.0194548,0.0000000,0.0000000,0.0000000,0.3692341,0.0000000,0.0000000,0.0194548,0.0000000,0.0000000,0.0000000,0.3692341,0.0000000,0.0000000,0.0194548,0.0194548,0.0000000,0.0000000,0.0012594,0.0000000,0.0000000,0.0000000,0.0194548,0.0000000,0.0000000,0.0012594,0.0000000,0.0000000,0.0000000,0.0194548,0.0000000,0.0000000,0.0012594
29.9735060,1.0002501,,-0.9838886,-0.1787612,0.0002576,0.0027655,0.0016819,-0.0049402,-0.0002063,,,,2.2919259,-12.5680637,-31.0755386,0.0000000,0.0000000,0.0000000,0.0200050,0.3700124,0.0000000,0.0000000,0.0194800,0.0000000,0.0000000,0.0000000,0.3700124,0.0000000,0.0000000,0.0194800,0.0000000,0.0000000,0.0000000,0.3700124,0.0000000,0.0000000,0.0194800,0.0194800,0.0000000,0.0000000,0.0012595,0.0000000,0.0000000,0.0000000,0.0194800,0.0000000,0.0000000,0.0012595,0.0000000,0.0000000,0.0000000,0.0194800,0.0000000,0.0000000,0.0012595
29.9867450,1.1495000,,-0.9838886,-0.1787612,0.0002539,0.0027470,0.0035341,-0.0002270,-0.0003473,,,,2.2919259,-12.5680637,-31.0755386,0.0000000,0.0000000,0.0000000,0.0229900,0.3709081,0.0000000,0.0000000,0.0195090,0.0000000,0.0000000,0.0000000,0.3709081,0.0000000,0.0000000,0.0195090,0.0000000,0.0000000,0.0000000,0.3709081,0.0000000,0.0000000,0.0195090,0.0195090,0.0000000,0.0000000,0.0012595,0.0000000,0.0000000,0.0000000,0.0195090,0.0000000,0.0000000,0.0012595,0.0000000,0.0000000,0.0000000,0.0195090,0.0000000,0.0000000,0.0012595
30.0080270,1.0500500,,-0.9838886,-0.1787612,0.0002584,0.0027420,0.0030030,-0.0032263,0.0039767,,,,2.2919259,-12.5680637,-31.0755386,0.0000000,0.0000000,0.0000000,0.0210010,0.3717275,0.0000000,0.0000000,0.0195354,0.0000000,0.0000000,0.0000000,0.3717275,0.0000000,0.0000000,0.0195354,0.0000000,0.0000000,0.0000000,0.3717275,0.0000000,0.0000000,0.0195354,0.0195354,0.0000000,0.0000000,0.0012595,0.0000000,0.0000000,0.0000000,0.0195354,0.0000000,0.0000000,0.0012595,0.0000000,0.0000000,0.0000000,0.0195354,0.0000000,0.0000000,0.0012595
30.0277200,0.9999500,,-0.9838886,-0.1787612,0.0002728,0.0027481,0.0044693,0.0018811,0.0019807,,,,2.2919259,-12.5680637,-31.0755386,0.0000000,0.0000000,0.0000000,0.0199990,0.3725089,0.0000000,0.0000000,0.0195606,0.0000000,0.0000000,0.0000000,0.3725089,0.0000000,0.0000000,0.0195606,0.0000000,0.0000000,0.0000000,0.3725089,0.0000000,0.0000000,0.0195606,0.0195606,0.0000000,0.0000000,0.0012595,0.0000000,0.0000000,0.0000000,0.0195606,0.0000000,0.0000000,0.0012595,0.0000000,0.0000000,0.0000000,0.0195606,0.0000000,0.0000000,0.0012595
30.0477010,1.0001501,,-0.9838887,-0.1787612,0.0002605,0.0027200,0.0063927,0.0092490,0.0073380,,,,2.2919259,-12.5680637,-31.0755386,0.0000000,0.0000000,0.0000000,0.0200030,0.3732915,0.0000000,0.0000000,0.0195858,0.0000000,0.0000000,0.0000000,0.3732915,0.0000000,0.0000000,0.0195858,0.0000000,0.0000000,0.0000000,0.3732915,0.0000000,0.0000000,0.0195858,0.0195858,0.0000000,0.0000000,0.0012595,0.0000000,0.0000000,0.0000000,0.0195858,0.0000000,0.0000000,0.0012595,0.0000000,0.0000000,0.0000000,0.0195858,0.0000000,0.0000000,0.0012595
30.0635060,,1.0000700,-0.9838887,-0.1787612,0.0002605,0.0027200,,,,0.0000000,0.0000000,0.0000000,2.2919259,-12.5680637,-31.0755386,0.0000000,0.0000000,0.0000000,0.1000070,0.3678155,0.0000000,0.0000000,0.0192985,0.0000000,0.0000000,0.0000000,0.3678155,0.0000000,0.0000000,0.0192985,0.0000000,0.0000000,0.0000000,0.3678155,0.0000000,0.0000000,0.0192985,0.0192985,0.0000000,0.0000000,0.0012444,0.0000000,0.0000000,0.0000000,0.0192985,0.0000000,0.0000000,0.0012444,0.0000000,0.0000000,0.0000000,0.0192985,0.0000000,0.0000000,0.0012444
30.0775080,0.9998500,,-0.9838887,-0.1787612,0.0002538,0.0026858,0.0044323,0.0070354,0.0102608,,,,2.2919259,-12.5680637,-31.0755386,0.0000000,0.0000000,0.0000000,0.0199970,0.3685873,0.0000000,0.0000000,0.0193234,0.0000000,0.0000000,0.0000000,0.3685873,0.0000000,0.0000000,0.0193234,0.0000000,0.0000000,0.0000000,0.3685873,0.0000000,0.0000000,0.0193234,0.0193234,0.0000000,0.0000000,0.0012444,0.0000000,0.0000000,0.0000000,0.0193234,0.0000000,0.0000000,0.0012444,0.0000000,0.0000000,0.0000000,0.0193234,0.0000000,0.0000000,0.0012444
30.0904590,1.1500000,,-0.9838887,-0.1787613,0.0002202,0.0026846,0.0080298,0.0035101,0.0063511,,,,2.2919259,-12.5680637,-31.0755386,0.0000000,0.0000000,0.0000000,0.0230000,0.3694762,0.0000000,0.0000000,0.0193520,0.0000000,0.0000000,0.0000000,0.3694762,0.0000000,0.0000000,0.0193520,0.0000000,0.0000000,0.0000000,0.3694762,0.0000000,0.0000000,0.0193520,0.0193520,0.0000000,0.0000000,0.0012444,0.0000000,0.0000000,0.0000000,0.0193520,0.0000000,0.0000000,0.0012444,0.0000000,0.0000000,0.0000000,0.0193520,0.0000000,0.0000000,0.0012444
30.1118600,1.0508000,,-0.9838887,-0.1787614,0.0001962,0.0026835,0.0037097,-0.0031430,0.0034197,,,,2.2919259,-12.5680637,-31.0755386,0.0000000,0.0000000,0.0000000,0.0210160,0.3702896,0.0000000,0.0000000,0.0193782,0.0000000,0.0000000,0.0000000,0.3702896,0.0000000,0.0000000,0.0193782,0.0000000,0.0000000,0.0000000,0.3702896,0.0000000,0.0000000,0.0193782,0.0193782,0.0000000,0.0000000,0.0012444,0.0000000,0.0000000,0.0000000,0.0193782,0.0000000,0.0000000,0.0012444,0.0000000,0.0000000,0.0000000,0.0193782,0.0000000,0.0000000,0.0012444
30.1315240,0.9993000,,-0.9838888,-0.1787614,0.0001866,0.0026700,0.0010690,0.0000993,0.0046395,,,,2.2919259,-12.5680637,-31.0755386,0.0000000,0.0000000,0.0000000,0.0199860,0.3710642,0.0000000,0.0000000,0.0194030,0.0000000,0.0000000,0.0000000,0.3710642,0.0000000,0.0000000,0.0194030,0.0000000,0.0000000,0.0000000,0.3710642,0.0000000,0.0000000,0.0194030,0.0194030,0.0000000,0.0000000,0.0012444,0.0000000,0.0000000,0.0000000,0.0194030,0.0000000,0.0000000,0.0012444,0.0000000,0.0000000,0.0000000,0.0194030,0.0000000,0.0000000,0.0012444
30.1532460,,1.0098799,-0.9838887,-0.1787614,0.0001909,0.0026801,,,,0.0000000,0.0000000,0.0000000,2.2919259,-12.5680637,-31.0755386,0.0000000,0.0000000,0.0000000,0.1009880,0.3656530,0.0000000,0.0000000,0.0191201,0.0000000,0.0000000,0.0000000,0.3656530,0.0000000,0.0000000,0.0191201,0.0000000,0.0000000,0.0000000,0.3656530,0.0000000,0.0000000,0.0191201,0.0191201,0.0000000,0.0000000,0.0012296,0.0000000,0.0000000,0.0000000,0.0191201,0.0000000,0.0000000,0.0012296,0.0000000,0.0000000,0.0000000,0.0191201,0.0000000,0.0000000,0.0012296
30.1667280,0.9999500,,-0.9838887,-0.1787614,0.0001909,0.0026801,0.0051350,-0.0031242,-0.0015865,,,,2.2919259,-12.5680637,-31.0755386,0.0000000,0.0000000,0.0000000,0.0199990,0.3664177,0.0000000,0.0000000,0.0191447,0.0000000,0.0000000,0.0000000,0.3664177,0.0000000,0.0000000,0.0191447,0.0000000,0.0000000,0.0000000,0.3664177,0.0000000,0.0000000,0.0191447,0.0191447,0.0000000,0.0000000,0.0012296,0.0000000,0.0000000,0.0000000,0.0191447,0.0000000,0.0000000,0.0012296,0.0000000,0.0000000,0.0000000,0.0191447,0.0000000,0.0000000,0.0012296
30.1798200,1.3999500,,-0.9838888,-0.1787614,0.0001991,0.0026643,0.0032771,-0.0067272,-0.0010374,,,,2.2919259,-12.5680637,-31.0755386,0.0000000,0.0000000,0.0000000,0.0279990,0.3674898,0.0000000,0.0000000,0.0191791,0.0000000,0.0000000,0.0000000,0.3674898,0.0000000,0.0000000,0.0191791,0.0000000,0.0000000,0.0000000,0.3674898,0.0000000,0.0000000,0.0191791,0.0191791,0.0000000,0.0000000,0.0012296,0.0000000,0.0000000,0.0000000,0.0191791,0.0000000,0.0000000,0.0012296,0.0000000,0.0000000,0.0000000,0.0191791,0.0000000,0.0000000,0.0012296
30.2000350,1.0001000,,-0.9838888,-0.1787613,0.0002172,0.0026700,-0.0054416,-0.0045919,0.0016786,,,,2.2919259,-12.5680637,-31.0755386,0.0000000,0.0000000,0.0000000,0.0200020,0.3682570,0.0000000,0.0000000,0.0192037,0.0000000,0.0000000,0.0000000,0.3682570,0.0000000,0.0000000,0.0192037,0.0000000,0.0000000,0.0000000,0.3682570,0.0000000,0.0000000,0.0192037,0.0192037,0.0000000,0.0000000,0.0012296,0.0000000,0.0000000,0.0000000,0.0192037,0.0000000,0.0000000,0.0012296,0.0000000,0.0000000,0.0000000,0.0192037,0.0000000,0.0000000,0.0012296
30.2197100,1.0002501,,-0.9838888,-0.1787613,0.0002236,0.0026732,-0.0071229,-0.0030360,-0.0035552,,,,2.2919259,-12.5680637,-31.0755386,0.0000000,0.0000000,0.0000000,0.0200050,0.3690253,0.0000000,0.0000000,0.0192283,0.0000000,0.0000000,0.0000000,0.3690253,0.0000000,0.0000000,0.0192283,0.0000000,0.0000000,0.0000000,0.3690253,0.0000000,0.0000000,0.0192283,0.0192283,0.0000000,0.0000000,0.0012296,0.0000000,0.0000000,0.0000000,0.0192283,0.0000000,0.0000000,0.0012296,0.0000000,0.0000000,0.0000000,0.0192283,0.0000000,0.0000000,0.0012296
30.2399560,0.9998500,,-0.9838887,-0.1787613,0.0002203,0.0026851,-0.0013871,-0.0002897,-0.0003128,,,,2.2919259,-12.5680637,-31.0755386,0.0000000,0.0000000,0.0000000,0.0199970,0.3697944,0.0000000,0.0000000,0.0192529,0.0000000,0.0000000,0.0000000,0.3697944,0.0000000,0.0000000,0.0192529,0.0000000,0.0000000,0.0000000,0.3697944,0.0000000,0.0000000,0.0192529,0.0192529,0.0000000,0.0000000,0.0012296,0.0000000,0.0000000,0.0000000,0.0192529,0.0000000,0.0000000,0.0012296,0.0000000,0.0000000,0.0000000,0.0192529,0.0000000,0.0000000,0.0012296
30.2556050,,1.0000000,-0.9838887,-0.1787613,0.0002203,0.0026851,,,,0.0000000,0.0000000,0.0000000,2.2919259,-12.5680637,-31.0755386,0.0000000,0.0000000,0.0000000,0.1000000,0.3644198,0.0000000,0.0000000,0.0189731,0.0000000,0.0000000,0.0000000,0.3644198,0.0000000,0.0000000,0.0189731,0.0000000,0.0000000,0.0000000,0.3644198,0.0000000,0.0000000,0.0189731,0.0189731,0.0000000,0.0000000,0.0012151,0.0000000,0.0000000,0.0000000,0.0189731,0.0000000,0.0000000,0.0012151,0.0000000,0.0000000,0.0000000,0.0189731,0.0000000,0.0000000,0.0012151
30.2695410,1.0002000,,-0.9838887,-0.1787614,0.0002042,0.0026874,0.0021904,0.0032731,-0.0033302,,,,2.2919259,-12.5680637,-31.0755386,0.0000000,0.0000000,0.0000000,0.0200040,0.3651789,0.0000000,0.0000000,0.0189974,0.0000000,0.0000000,0.0000000,0.3651789,0.0000000,0.0000000,0.0189974,0.0000000,0.0000000,0.0000000,0.3651789,0.0000000,0.0000000,0.0189974,0.0189974,0.0000000,0.0000000,0.0012151,0.0000000,0.0000000,0.0000000,0.0189974,0.0000000,0.0000000,0.0012151,0.0000000,0.0000000,0.0000000,0.0189974,0.0000000,0.0000000,0.0012151
30.2826610,1.1496000,,-0.9838888,-0.1787614,0.0002098,0.0026677,0.0084041,0.0079461,-0.0119190,,,,2.2919259,-12.5680637,-31.0755386,0.0000000,0.0000000,0.0000000,0.0229920,0.3660524,0.0000000,0.0000000,0.0190253,0.0000000,0.0000000,0.0000000,0.3660524,0.0000000,0.0000000,0.0190253,0.0000000,0.0000000,0.0000000,0.3660524,0.0000000,0.0000000,0.0190253,0.0190253,0.0000000,0.0000000,0.0012151,0.0000000,0.0000000,0.0000000,0.0190253,0.0000000,0.0000000,0.0012151,0.0000000,0.0000000,0.0000000,0.0190253,0.0000000,0.0000000,0.0012151
30.3039100,1.0502001,,-0.9838888,-0.1787614,0.0001871,0.0026640,0.0112135,0.0075970,-0.0086451,,,,2.2919259,-12.5680637,-31.0755386,0.0000000,0.0000000,0.0000000,0.0210040,0.3668517,0.0000000,0.0000000,0.0190508,0.0000000,0.0000000,0.0000000,0.3668517,0.0000000,0.0000000,0.0190508,0.0000000,0.0000000,0.0000000,0.3668517,0.0000000,0.0000000,0.0190508,0.0190508,0.0000000,0.0000000,0.0012151,0.0000000,0.0000000,0.0000000,0.0190508,0.0000000,0.0000000,0.0012151,0.0000000,0.0000000,0.0000000,0.0190508,0.0000000,0.0000000,0.0012151
30.3238860,1.0002501,,-0.9838800,-0.1788107,0.0001548,0.0026185,0.0103980,-0.0021906,-0.0082288,,,,2.2919259,-12.5680637,-31.0755386,0.0000000,0.0000000,0.0000000,0.0200050,0.3676139,0.0000000,0.0000000,0.0190751,0.0000000,0.0000000,0.0000000,0.3676139,0.0000000,0.0000000,0.0190751,0.0000000,0.0000000,0.0000000,0.3676139,0.0000000,0.0000000,0.0190751,0.0190751,0.0000000,0.0000000,0.0012151,0.0000000,0.0000000,0.0000000,0.0190751,0.0000000,0.0000000,0.0012151,0.0000000,0.0000000,0.0000000,0.0190751,0.0000000,0.0000000,0.0012151
30.3436760,1.0000501,,-0.9838626,-0.1789049,0.0002156,0.0027019,-0.0018582,0.0251346,-0.0329306,,,,2.2919259,-12.5680637,-31.0755386,0.0000000,0.0000000,0.0000000,0.0200010,0.3683769,0.0000000,0.0000000,0.0190994,0.0000000,0.0000000,0.0000000,0.3683769,0.0000000,0.0000000,0.0190994,0.0000000,0.0000000,0.0000000,0.3683769,0.0000000,0.0000000,0.0190994,0.0190994,0.0000000,0.0000000,0.0012151,0.0000000,0.0000000,0.0000000,0.0190994,0.0000000,0.0000000,0.0012151,0.0000000,0.0000000,0.0000000,0.0190994,0.0000000,0.0000000,0.0012151
30.3596230,,1.0000000,-0.9838626,-0.1789049,0.0002156,0.0027019,,,,-0.0072808,-0.0027384,-0.0000042,2.2918205,-12.5681038,-31.0755386,-0.0000055,-0.0000021,-0.0000000,0.1000000,0.3630432,0.0000000,0.0000000,0.0188229,0.0000000,0.0000000,0.0000000,0.3630432,0.0000000,0.0000000,0.0188229,0.0000000,0.0000000,0.0000000,0.3630432,0.0000000,0.0000000,0.0188229,0.0188229,0.0000000,0.0000000,0.0012008,0.0000000,0.0000000,0.0000000,0.0188229,0.0000000,0.0000000,0.0012008,0.0000000,0.0000000,0.0000000,0.0188229,0.0000000,0.0000000,0.0012008
30.3731880,0.9996000,,-0.9838505,-0.1789715,0.0002470,0.0027283,-0.0011427,0.0141084,-0.0215999,,,,2.2918205,-12.5681038,-31.0755386,0.0000000,0.0000000,0.0000000,0.0199920,0.3637958,0.0000000,0.0000000,0.0188469,0.0000000,0.0000000,0.0000000,0.3637958,0.0000000,0.0000000,0.0188469,0.0000000,0.0000000,0.0000000,0.3637958,0.0000000,0.0000000,0.0188469,0.0188469,0.0000000,0.0000000,0.0012008,0.0000000,0.0000000,0.0000000,0.0188469,0.0000000,0.0000000,0.0012008,0.0000000,0.0000000,0.0000000,0.0188469,0.0000000,0.0000000,0.0012008
30.3867920,1.1499000,,-0.9838443,-0.1790048,0.0002783,0.0027524,0.0094918,0.0108231,-0.0164228,,,,2.2918205,-12.5681038,-31.0755386,0.0000000,0.0000000,0.0000000,0.0229980,0.3646627,0.0000000,0.0000000,0.0188745,0.0000000,0.0000000,0.0000000,0.3646627,0.0000000,0.0000000,0.0188745,0.0000000,0.0000000,0.0000000,0.3646627,0.0000000,0.0000000,0.0188745,0.0188745,0.0000000,0.0000000,0.0012008,0.0000000,0.0000000,0.0000000,0.0188745,0.0000000,0.0000000,0.0012008,0.0000000,0.0000000,0.0000000,0.0188745,0.0000000,0.0000000,0.0012008
30.4067680,1.0001000,,-0.9838413,-0.1790213,0.0003153,0.0027684,0.0043568,0.0133461,-0.0145667,,,,2.2918205,-12.5681038,-31.0755386,0.0000000,0.0000000,0.0000000,0.0200020,0.3654177,0.0000000,0.0000000,0.0188985,0.0000000,0.0000000,0.0000000,0.3654177,0.0000000,0.0000000,0.0188985,0.0000000,0.0000000,0.0000000,0.3654177,0.0000000,0.0000000,0.0188985,0.0188985,0.0000000,0.0000000,0.0012008,0.0000000,0.0000000,0.0000000,0.0188985,0.0000000,0.0000000,0.0012008,0.0000000,0.0000000,0.0000000,0.0188985,0.0000000,0.0000000,0.0012008
30.4280030,1.0500500,,-0.9838355,-0.1790536,0.0003637,0.0027525,-0.0010793,0.0096867,-0.0104648,,,,2.2918205,-12.5681038,-31.0755386,0.0000000,0.0000000,0.0000000,0.0210010,0.3662115,0.0000000,0.0000000,0.0189238,0.0000000,0.0000000,0.0000000,0.3662115,0.0000000,0.0000000,0.0189238,0.0000000,0.0000000,0.0000000,0.3662115,0.0000000,0.0000000,0.0189238,0.0189238,0.0000000,0.0000000,0.0012008,0.0000000,0.0000000,0.0000000,0.0189238,0.0000000,0.0000000,0.0012008,0.0000000,0.0000000,0.0000000,0.0189238,0.0000000,0.0000000,0.0012008
30.4478590,0.9998500,,-0.9838324,-0.1790698,0.0003931,0.0027844,-0.0067271,0.0076967,-0.0081697,,,,2.2918205,-12.5681038,-31.0755386,0.0000000,0.0000000,0.0000000,0.0199970,0.3669684,0.0000000,0.0000000,0.0189478,0.0000000,0.0000000,0.0000000,0.3669684,0.0000000,0.0000000,0.0189478,0.0000000,0.0000000,0.0000000,0.3669684,0.0000000,0.0000000,0.0189478,0.0189478,0.0000000,0.0000000,0.0012008,0.0000000,0.0000000,0.0000000,0.0189478,0.0000000,0.0000000,0.0012008,0.0000000,0.0000000,0.0000000,0.0189478,0.0000000,0.0000000,0.0012008
30.4636310,,1.0000100,-0.9838324,-0.1790698,0.0003931,0.0027844,,,,-0.0410841,-0.0237797,-0.0000542,2.2912278,-12.5684471,-31.0755386,-0.0000306,-0.0000177,-0.0000000,0.1000010,0.3616751,0.0000000,0.0000000,0.0186745,0.0000000,0.0000000,0.0000000,0.3616751,0.0000000,0.0000000,0.0186745,0.0000000,0.0000000,0.0000000,0.3616751,0.0000000,0.0000000,0.0186745,0.0186745,0.0000000,0.0000000,0.0011867,0.0000000,0.0000000,0.0000000,0.0186745,0.0000000,0.0000000,0.0011867,0.0000000,0.0000000,0.0000000,0.0186745,0.0000000,0.0000000,0.0011867
30.4774980,1.0000000,,-0.9838309,-0.1790779,0.0004029,0.0027896,0.0038691,0.0118058,-0.0075105,,,,2.2912278,-12.5684471,-31.0755386,0.0000000,0.0000000,0.0000000,0.0200000,0.3624220,0.0000000,0.0000000,0.0186982,0.0000000,0.0000000,0.0000000,0.3624220,0.0000000,0.0000000,0.0186982,0.0000000,0.0000000,0.0000000,0.3624220,0.0000000,0.0000000,0.0186982,0.0186982,0.0000000,0.0000000,0.0011867,0.0000000,0.0000000,0.0000000,0.0186982,0.0000000,0.0000000,0.0011867,0.0000000,0.0000000,0.0000000,0.0186982,0.0000000,0.0000000,0.0011867
30.4906130,1.1500000,,-0.9838278,-0.1790946,0.0003698,0.0027838,0.0100751,0.0233513,-0.0132843,,,,2.2912278,-12.5684471,-31.0755386,0.0000000,0.0000000,0.0000000,0.0230000,0.3632821,0.0000000,0.0000000,0.0187255,0.0000000,0.0000000,0.0000000,0.3632821,0.0000000,0.0000000,0.0187255,0.0000000,0.0000000,0.0000000,0.3632821,0.0000000,0.0000000,0.0187255,0.0187255,0.0000000,0.0000000,0.0011867,0.0000000,0.0000000,0.0000000,0.0187255,0.0000000,0.0000000,0.0011867,0.0000000,0.0000000,0.0000000,0.0187255,0.0000000,0.0000000,0.0011867
30.5117590,1.0501001,,-0.9838305,-0.1790800,0.0003424,0.0028052,0.0019171,0.0137814,-0.0142182,,,,2.2912278,-12.5684471,-31.0755386,0.0000000,0.0000000,0.0000000,0.0210020,0.3640687,0.0000000,0.0000000,0.0187504,0.0000000,0.0000000,0.0000000,0.3640687,0.0000000,0.0000000,0.0187504,0.0000000,0.0000000,0.0000000,0.3640687,0.0000000,0.0000000,0.0187504,0.0187504,0.0000000,0.0000000,0.0011867,0.0000000,0.0000000,0.0000000,0.0187504,0.0000000,0.0000000,0.0011867,0.0000000,0.0000000,0.0000000,0.0187504,0.0000000,0.0000000,0.0011867
30.5329950,1.0500000,,-0.9838345,-0.1790565,0.0003435,0.0028722,0.0080997,0.0083861,-0.0161499,,,,2.2912278,-12.5684471,-31.0755386,0.0000000,0.0000000,0.0000000,0.0210000,0.3648562,0.0000000,0.0000000,0.0187753,0.0000000,0.0000000,0.0000000,0.3648562,0.0000000,0.0000000,0.0187753,0.0000000,0.0000000,0.0000000,0.3648562,0.0000000,0.0000000,0.0187753,0.0187753,0.0000000,0.0000000,0.0011867,0.0000000,0.0000000,0.0000000,0.0187753,0.0000000,0.0000000,0.0011867,0.0000000,0.0000000,0.0000000,0.0187753,0.0000000,0.0000000,0.0011867
30.5520070,,0.9999700,-0.9838367,-0.1790448,0.0003313,0.0028523,,,,-0.0372215,-0.0141788,-0.0000149,2.2906940,-12.5686502,-31.0755386,-0.0000275,-0.0000105,-0.0000000,0.0999970,0.3596232,0.0000000,0.0000000,0.0185060,0.0000000,0.0000000,0.0000000,0.3596232,0.0000000,0.0000000,0.0185060,0.0000000,0.0000000,0.0000000,0.3596232,0.0000000,0.0000000,0.0185060,0.0185060,0.0000000,0.0000000,0.0011728,0.0000000,0.0000000,0.0000000,0.0185060,0.0000000,0.0000000,0.0011728,0.0000000,0.0000000,0.0000000,0.0185060,0.0000000,0.0000000,0.0011728
30.5650100,1.0002501,,-0.9838367,-0.1790448,0.0003313,0.0028523,-0.0012678,0.0053298,-0.0102799,,,,2.2906940,-12.5686502,-31.0755386,0.0000000,0.0000000,0.0000000,0.0200050,0.3603637,0.0000000,0.0000000,0.0185295,0.0000000,0.0000000,0.0000000,0.3603637,0.0000000,0.0000000,0.0185295,0.0000000,0.0000000,0.0000000,0.3603637,0.0000000,0.0000000,0.0185295,0.0185295,0.0000000,0.0000000,0.0011728,0.0000000,0.0000000,0.0000000,0.0185295,0.0000000,0.0000000,0.0011728,0.0000000,0.0000000,0.0000000,0.0185295,0.0000000,0.0000000,0.0011728
30.5796590,1.3497000,,-0.9838454,-0.1789974,0.0002737,0.0028331,0.0073769,-0.0033165,-0.0114952,,,,2.2906940,-12.5686502,-31.0755386,0.0000000,0.0000000,0.0000000,0.0269940,0.3613640,0.0000000,0.0000000,0.0185612,0.0000000,0.0000000,0.0000000,0.3613640,0.0000000,0.0000000,0.0185612,0.0000000,0.0000000,0.0000000,0.3613640,0.0000000,0.0000000,0.0185612,0.0185612,0.0000000,0.0000000,0.0011729,0.0000000,0.0000000,0.0000000,0.0185612,0.0000000,0.0000000,0.0011729,0.0000000,0.0000000,0.0000000,0.0185612,0.0000000,0.0000000,0.0011729
30.5997810,1.0003999,,-0.9838476,-0.1789863,0.0002446,0.0027918,0.0029255,0.0064594,-0.0135601,,,,2.2906940,-12.5686502,-31.0755386,0.0000000,0.0000000,0.0000000,0.0200080,0.3621068,0.0000000,0.0000000,0.0185846,0.0000000,0.0000000,0.0000000,0.3621068,0.0000000,0.0000000,0.0185846,0.0000000,0.0000000,0.0000000,0.3621068,0.0000000,0.0000000,0.0185846,0.0185846,0.0000000,0.0000000,0.0011729,0.0000000,0.0000000,0.0000000,0.0185846,0.0000000,0.0000000,0.0011729,0.0000000,0.0000000,0.0000000,0.0185846,0.0000000,0.0000000,0.0011729
30.6200090,0.9998000,,-0.9838485,-0.1789806,0.0002706,0.0028171,-0.0068075,0.0112100,-0.0233892,,,,2.2906940,-12.5686502,-31.0755386,0.0000000,0.0000000,0.0000000,0.0199960,0.3628500,0.0000000,0.0000000,0.0186081,0.0000000,0.0000000,0.0000000,0.3628500,0.0000000,0.0000000,0.0186081,0.0000000,0.0000000,0.0000000,0.3628500,0.0000000,0.0000000,0.0186081,0.0186081,0.0000000,0.0000000,0.0011729,0.0000000,0.0000000,0.0000000,0.0186081,0.0000000,0.0000000,0.0011729,0.0000000,0.0000000,0.0000000,0.0186081,0.0000000,0.0000000,0.0011729
30.6398100,1.0001000,,-0.9838530,-0.1789557,0.0002431,0.0028228,-0.0137034,0.0079396,-0.0073077,,,,2.2906940,-12.5686502,-31.0755386,0.0000000,0.0000000,0.0000000,0.0200020,0.3635944,0.0000000,0.0000000,0.0186315,0.0000000,0.0000000,0.0000000,0.3635944,0.0000000,0.0000000,0.0186315,0.0000000,0.0000000,0.0000000,0.3635944,0.0000000,0.0000000,0.0186315,0.0186315,0.0000000,0.0000000,0.0011729,0.0000000,0.0000000,0.0000000,0.0186315,0.0000000,0.0000000,0.0011729,0.0000000,0.0000000,0.0000000,0.0186315,0.0000000,0.0000000,0.0011729
30.6559830,,1.0000199,-0.9838530,-0.1789557,0.0002431,0.0028228,,,,-0.0298666,-0.0112401,-0.0000170,2.2902670,-12.5688105,-31.0755386,-0.0000219,-0.0000082,-0.0000000,0.1000020,0.3583973,0.0000000,0.0000000,0.0183652,0.0000000,0.0000000,0.0000000,0.3583973,0.0000000,0.0000000,0.0183652,0.0000000,0.0000000,0.0000000,0.3583973,0.0000000,0.0000000,0.0183652,0.0183652,0.0000000,0.0000000,0.0011592,0.0000000,0.0000000,0.0000000,0.0183652,0.0000000,0.0000000,0.0011592,0.0000000,0.0000000,0.0000000,0.0183652,0.0000000,0.0000000,0.0011592
30.6705130,1.0001000,,-0.9838539,-0.1789513,0.0002799,0.0028086,-0.0104528,0.0143458,-0.0051263,,,,2.2902670,-12.5688105,-31.0755386,0.0000000,0.0000000,0.0000000,0.0200020,0.3591320,0.0000000,0.0000000,0.0183884,0.0000000,0.0000000,0.0000000,0.3591320,0.0000000,0.0000000,0.0183884,0.0000000,0.0000000,0.0000000,0.3591320,0.0000000,0.0000000,0.0183884,0.0183884,0.0000000,0.0000000,0.0011592,0.0000000,0.0000000,0.0000000,0.0183884,0.0000000,0.0000000,0.0011592,0.0000000,0.0000000,0.0000000,0.0183884,0.0000000,0.0000000,0.0011592
30.6840010,1.1999500,,-0.9838648,-0.1788927,0.0002401,0.0027411,-0.0067218,-0.0153033,0.0001224,,,,2.2902670,-12.5688105,-31.0755386,0.0000000,0.0000000,0.0000000,0.0239990,0.3600146,0.0000000,0.0000000,0.0184162,0.0000000,0.0000000,0.0000000,0.3600146,0.0000000,0.0000000,0.0184162,0.0000000,0.0000000,0.0000000,0.3600146,0.0000000,0.0000000,0.0184162,0.0184162,0.0000000,0.0000000,0.0011592,0.0000000,0.0000000,0.0000000,0.0184162,0.0000000,0.0000000,0.0011592,0.0000000,0.0000000,0.0000000,0.0184162,0.0000000,0.0000000,0.0011592
30.7035490,1.0003999,,-0.9838576,-0.1789332,0.0002970,0.0026765,-0.0098230,-0.0167306,0.0122682,,,,2.2902670,-12.5688105,-31.0755386,0.0000000,0.0000000,0.0000000,0.0200080,0.3607515,0.0000000,0.0000000,0.0184394,0.0000000,0.0000000,0.0000000,0.3607515,0.0000000,0.0000000,0.0184394,0.0000000,0.0000000,0.0000000,0.3607515,0.0000000,0.0000000,0.0184394,0.0184394,0.0000000,0.0000000,0.0011592,0.0000000,0.0000000,0.0000000,0.0184394,0.0000000,0.0000000,0.0011592,0.0000000,0.0000000,0.0000000,0.0184394,0.0000000,0.0000000,0.0011592
30.7246950,1.0494001,,-0.9838637,-0.1789005,0.0003016,0.0026044,-0.0057889,-0.0128972,0.0144349,,,,2.2902670,-12.5688105,-31.0755386,0.0000000,0.0000000,0.0000000,0.0209880,0.3615256,0.0000000,0.0000000,0.0184638,0.0000000,0.0000000,0.0000000,0.3615256,0.0000000,0.0000000,0.0184638,0.0000000,0.0000000,0.0000000,0.3615256,0.0000000,0.0000000,0.0184638,0.0184638,0.0000000,0.0000000,0.0011592,0.0000000,0.0000000,0.0000000,0.0184638,0.0000000,0.0000000,0.0011592,0.0000000,0.0000000,0.0000000,0.0184638,0.0000000,0.0000000,0.0011592
30.7470600,1.0499500,,-0.9838680,-0.1788759,0.0002595,0.0026666,-0.0024290,-0.0007952,0.0057526,,,,2.2902670,-12.5688105,-31.0755386,0.0000000,0.0000000,0.0000000,0.0209990,0.3623010,0.0000000,0.0000000,0.0184881,0.0000000,0.0000000,0.0000000,0.3623010,0.0000000,0.0000000,0.0184881,0.0000000,0.0000000,0.0000000,0.3623010,0.0000000,0.0000000,0.0184881,0.0184881,0.0000000,0.0000000,0.0011592,0.0000000,0.0000000,0.0000000,0.0184881,0.0000000,0.0000000,0.0011592,0.0000000,0.0000000,0.0000000,0.0184881,0.0000000,0.0000000,0.0011592
30.7628010,,1.0000199,-0.9838680,-0.1788759,0.0002595,0.0026443,,,,-0.0151593,-0.0057007,-0.0000072,2.2900510,-12.5688915,-31.0755386,-0.0000110,-0.0000041,-0.0000000,0.1000020,0.3571405,0.0000000,0.0000000,0.0182248,0.0000000,0.0000000,0.0000000,0.3571405,0.0000000,0.0000000,0.0182248,0.0000000,0.0000000,0.0000000,0.3571405,0.0000000,0.0000000,0.0182248,0.0182248,0.0000000,0.0000000,0.0011458,0.0000000,0.0000000,0.0000000,0.0182248,0.0000000,0.0000000,0.0011458,0.0000000,0.0000000,0.0000000,0.0182248,0.0000000,0.0000000,0.0011458
30.7761450,1.0003500,,-0.9838653,-0.1788911,0.0002312,0.0026443,-0.0066085,-0.0029077,0.0128861,,,,2.2900510,-12.5688915,-31.0755386,0.0000000,0.0000000,0.0000000,0.0200070,0.3578698,0.0000000,0.0000000,0.0182477,0.0000000,0.0000000,0.0000000,0.3578698,0.0000000,0.0000000,0.0182477,0.0000000,0.0000000,0.0000000,0.3578698,0.0000000,0.0000000,0.0182477,0.0182477,0.0000000,0.0000000,0.0011458,0.0000000,0.0000000,0.0000000,0.0182477,0.0000000,0.0000000,0.0011458,0.0000000,0.0000000,0.0000000,0.0182477,0.0000000,0.0000000,0.0011458
30.7896500,1.1995500,,-0.9838725,-0.1788513,0.0001916,0.0026460,-0.0121696,-0.0115094,0.0127907,,,,2.2900510,-12.5688915,-31.0755386,0.0000000,0.0000000,0.0000000,0.0239910,0.3587453,0.0000000,0.0000000,0.0182752,0.0000000,0.0000000,0.0000000,0.3587453,0.0000000,0.0000000,0.0182752,0.0000000,0.0000000,0.0000000,0.3587453,0.0000000,0.0000000,0.0182752,0.0182752,0.0000000,0.0000000,0.0011458,0.0000000,0.0000000,0.0000000,0.0182752,0.0000000,0.0000000,0.0011458,0.0000000,0.0000000,0.0000000,0.0182752,0.0000000,0.0000000,0.0011458
30.8097310,1.0002000,,-0.9838761,-0.1788316,0.0001290,0.0026449,0.0020558,0.0063837,-0.0011730,,,,2.2900510,-12.5688915,-31.0755386,0.0000000,0.0000000,0.0000000,0.0200040,0.3594765,0.0000000,0.0000000,0.0182981,0.0000000,0.0000000,0.0000000,0.3594765,0.0000000,0.0000000,0.0182981,0.0000000,0.0000000,0.0000000,0.3594765,0.0000000,0.0000000,0.0182981,0.0182981,0.0000000,0.0000000,0.0011458,0.0000000,0.0000000,0.0000000,0.0182981,0.0000000,0.0000000,0.0011458,0.0000000,0.0000000,0.0000000,0.0182981,0.0000000,0.0000000,0.0011458
30.8300400,1.0001000,,-0.9838712,-0.1788595,0.0001722,0.0026041,-0.0009252,0.0240659,0.0042963,,,,2.2900510,-12.5688915,-31.0755386,0.0000000,0.0000000,0.0000000,0.0200020,0.3602085,0.0000000,0.0000000,0.0183210,0.0000000,0.0000000,0.0000000,0.3602085,0.0000000,0.0000000,0.0183210,0.0000000,0.0000000,0.0000000,0.3602085,0.0000000,0.0000000,0.0183210,0.0183210,0.0000000,0.0000000,0.0011458,0.0000000,0.0000000,0.0000000,0.0183210,0.0000000,0.0000000,0.0011458,0.0000000,0.0000000,0.0000000,0.0183210,0.0000000,0.0000000,0.0011458
30.8530770,,1.0000299,-0.9838686,-0.1788734,0.0001906,0.0026013,,,,-0.0294274,-0.0110649,-0.0000186,2.2896342,-12.5690479,-31.0755386,0.0000000,0.0000000,0.0000000,0.1000030,0.3551070,0.0000000,0.0000000,0.0180615,0.0000000,0.0000000,0.0000000,0.3551070,0.0000000,0.0000000,0.0180615,0.0000000,0.0000000,0.0000000,0.3551070,0.0000000,0.0000000,0.0180615,0.0180615,0.0000000,0.0000000,0.0011326,0.0000000,0.0000000,0.0000000,0.0180615,0.0000000,0.0000000,0.0011326,0.0000000,0.0000000,0.0000000,0.0180615,0.0000000,0.0000000,0.0011326
30.8667890,1.0505000,,-0.9838686,-0.1788734,0.0001906,0.0026013,0.0034360,0.0073027,-0.0000491,,,,2.2896342,-12.5690479,-31.0755386,0.0000000,0.0000000,0.0000000,0.0210100,0.3558660,0.0000000,0.0000000,0.0180853,0.0000000,0.0000000,0.0000000,0.3558660,0.0000000,0.0000000,0.0180853,0.0000000,0.0000000,0.0000000,0.3558660,0.0000000,0.0000000,0.0180853,0.0180853,0.0000000,0.0000000,0.0011326,0.0000000,0.0000000,0.0000000,0.0180853,0.0000000,0.0000000,0.0011326,0.0000000,0.0000000,0.0000000,0.0180853,0.0000000,0.0000000,0.0011326
30.8798590,1.4492000,,-0.9838641,-0.1788987,0.0002366,0.0025822,-0.0043169,-0.0028031,0.0019286,,,,2.2896342,-12.5690479,-31.0755386,0.0000000,0.0000000,0.0000000,0.0289840,0.3569143,0.0000000,0.0000000,0.0181182,0.0000000,0.0000000,0.0000000,0.3569143,0.0000000,0.0000000,0.0181182,0.0000000,0.0000000,0.0000000,0.3569143,0.0000000,0.0000000,0.0181182,0.0181182,0.0000000,0.0000000,0.0011326,0.0000000,0.0000000,0.0000000,0.0181182,0.0000000,0.0000000,0.0011326,0.0000000,0.0000000,0.0000000,0.0181182,0.0000000,0.0000000,0.0011326
30.8996570,1.0001000,,-0.9838714,-0.1788584,0.0001670,0.0025870,-0.0008157,-0.0112816,0.0026733,,,,2.2896342,-12.5690479,-31.0755386,0.0000000,0.0000000,0.0000000,0.0200020,0.3576391,0.0000000,0.0000000,0.0181408,0.0000000,0.0000000,0.0000000,0.3576391,0.0000000,0.0000000,0.0181408,0.0000000,0.0000000,0.0000000,0.3576391,0.0000000,0.0000000,0.0181408,0.0181408,0.0000000,0.0000000,0.0011326,0.0000000,0.0000000,0.0000000,0.0181408,0.0000000,0.0000000,0.0011326,0.0000000,0.0000000,0.0000000,0.0181408,0.0000000,0.0000000,0.0011326
30.9198650,0.9999500,,-0.9838674,-0.1788807,0.0001118,0.0025546,-0.0017735,-0.0024136,0.0028015,,,,2.2896342,-12.5690479,-31.0755386,0.0000000,0.0000000,0.0000000,0.0199990,0.3583647,0.0000000,0.0000000,0.0181635,0.0000000,0.0000000,0.0000000,0.3583647,0.0000000,0.0000000,0.0181635,0.0000000,0.0000000,0.0000000,0.3583647,0.0000000,0.0000000,0.0181635,0.0181635,0.0000000,0.0000000,0.0011326,0.0000000,0.0000000,0.0000000,0.0181635,0.0000000,0.0000000,0.0011326,0.0000000,0.0000000,0.0000000,0.0181635,0.0000000,0.0000000,0.0011326
30.9395870,1.0001000,,-0.9838654,-0.1788917,0.0001362,0.0025896,-0.0077837,0.0070253,0.0114105,,,,2.2896342,-12.5690479,-31.0755386,0.0000000,0.0000000,0.0000000,0.0200020,0.3590913,0.0000000,0.0000000,0.0181861,0.0000000,0.0000000,0.0000000,0.3590913,0.0000000,0.0000000,0.0181861,0.0000000,0.0000000,0.0000000,0.3590913,0.0000000,0.0000000,0.0181861,0.0181861,0.0000000,0.0000000,0.0011327,0.0000000,0.0000000,0.0000000,0.0181861,0.0000000,0.0000000,0.0011327,0.0000000,0.0000000,0.0000000,0.0181861,0.0000000,0.0000000,0.0011327
30.9560430,,0.9999700,-0.9838654,-0.1788917,0.0001362,0.0025896,,,,-0.0515547,-0.0193888,-0.0000363,2.2889063,-12.5693216,-31.0755386,-0.0000369,-0.0000139,-0.0000000,0.0999970,0.3540213,0.0000000,0.0000000,0.0179294,0.0000000,0.0000000,0.0000000,0.3540213,0.0000000,0.0000000,0.0179294,0.0000000,0.0000000,0.0000000,0.3540213,0.0000000,0.0000000,0.0179294,0.0179294,0.0000000,0.0000000,0.0011196,0.0000000,0.0000000,0.0000000,0.0179294,0.0000000,0.0000000,0.0011196,0.0000000,0.0000000,0.0000000,0.0179294,0.0000000,0.0000000,0.0011196
30.9705490,0.9999500,,-0.9838623,-0.1789086,0.0001410,0.0026049,-0.0086068,-0.0117003,0.0074142,,,,2.2889063,-12.5693216,-31.0755386,0.0000000,0.0000000,0.0000000,0.0199990,0.3547384,0.0000000,0.0000000,0.0179518,0.0000000,0.0000000,0.0000000,0.3547384,0.0000000,0.0000000,0.0179518,0.0000000,0.0000000,0.0000000,0.3547384,0.0000000,0.0000000,0.0179518,0.0179518,0.0000000,0.0000000,0.0011197,0.0000000,0.0000000,0.0000000,0.0179518,0.0000000,0.0000000,0.0011197,0.0000000,0.0000000,0.0000000,0.0179518,0.0000000,0.0000000,0.0011197
30.9839010,1.2002000,,-0.9838607,-0.1789169,0.0001852,0.0026110,-0.0050282,-0.0046981,-0.0019081,,,,2.2889063,-12.5693216,-31.0755386,0.0000000,0.0000000,0.0000000,0.0240040,0.3556002,0.0000000,0.0000000,0.0179786,0.0000000,0.0000000,0.0000000,0.3556002,0.0000000,0.0000000,0.0179786,0.0000000,0.0000000,0.0000000,0.3556002,0.0000000,0.0000000,0.0179786,0.0179786,0.0000000,0.0000000,0.0011197,0.0000000,0.0000000,0.0000000,0.0179786,0.0000000,0.0000000,0.0011197,0.0000000,0.0000000,0.0000000,0.0179786,0.0000000,0.0000000,0.0011197
31.0038170,1.0001000,,-0.9838591,-0.1789256,0.0002089,0.0026255,0.0026205,0.0132302,-0.0007099,,,,2.2889063,-12.5693216,-31.0755386,0.0000000,0.0000000,0.0000000,0.0200020,0.3563195,0.0000000,0.0000000,0.0180010,0.0000000,0.0000000,0.0000000,0.3563195,0.0000000,0.0000000,0.0180010,0.0000000,0.0000000,0.0000000,0.3563195,0.0000000,0.0000000,0.0180010,0.0180010,0.0000000,0.0000000,0.0011197,0.0000000,0.0000000,0.0000000,0.0180010,0.0000000,0.0000000,0.0011197,0.0000000,0.0000000,0.0000000,0.0180010,0.0000000,0.0000000,0.0011197
31.0238810,0.9998500,,-0.9838582,-0.1789300,0.0002051,0.0026420,0.0049418,0.0114674,0.0059927,,,,2.2889063,-12.5693216,-31.0755386,0.0000000,0.0000000,0.0000000,0.0199970,0.3570394,0.0000000,0.0000000,0.0180234,0.0000000,0.0000000,0.0000000,0.3570394,0.0000000,0.0000000,0.0180234,0.0000000,0.0000000,0.0000000,0.3570394,0.0000000,0.0000000,0.0180234,0.0180234,0.0000000,0.0000000,0.0011197,0.0000000,0.0000000,0.0000000,0.0180234,0.0000000,0.0000000,0.0011197,0.0000000,0.0000000,0.0000000,0.0180234,0.0000000,0.0000000,0.0011197
31.0438870,1.0002999,,-0.9838578,-0.1789321,0.0002002,0.0026656,0.0053625,0.0064661,0.0027522,,,,2.2889063,-12.5693216,-31.0755386,0.0000000,0.0000000,0.0000000,0.0200060,0.3577605,0.0000000,0.0000000,0.0180458,0.0000000,0.0000000,0.0000000,0.3577605,0.0000000,0.0000000,0.0180458,0.0000000,0.0000000,0.0000000,0.3577605,0.0000000,0.0000000,0.0180458,0.0180458,0.0000000,0.0000000,0.0011197,0.0000000,0.0000000,0.0000000,0.0180458,0.0000000,0.0000000,0.0011197,0.0000000,0.0000000,0.0000000,0.0180458,0.0000000,0.0000000,0.0011197
31.0597930,,0.9999800,-0.9838578,-0.1789321,0.0002002,0.0026973,,,,-0.0128536,-0.0131460,-0.0000507,2.2887256,-12.5695066,-31.0755386,-0.0000091,-0.0000093,-0.0000000,0.0999980,0.3527277,0.0000000,0.0000000,0.0177920,0.0000000,0.0000000,0.0000000,0.3527277,0.0000000,0.0000000,0.0177920,0.0000000,0.0000000,0.0000000,0.3527277,0.0000000,0.0000000,0.0177920,0.0177920,0.0000000,0.0000000,0.0011069,0.0000000,0.0000000,0.0000000,0.0177920,0.0000000,0.0000000,0.0011069,0.0000000,0.0000000,0.0000000,0.0177920,0.0000000,0.0000000,0.0011069
31.0733550,0.9998000,,-0.9838575,-0.1789332,0.0001937,0.0026973,0.0094638,-0.0162600,0.0101652,,,,2.2887256,-12.5695066,-31.0755386,0.0000000,0.0000000,0.0000000,0.0199960,0.3534392,0.0000000,0.0000000,0.0178141,0.0000000,0.0000000,0.0000000,0.3534392,0.0000000,0.0000000,0.0178141,0.0000000,0.0000000,0.0000000,0.3534392,0.0000000,0.0000000,0.0178141,0.0178141,0.0000000,0.0000000,0.0011069,0.0000000,0.0000000,0.0000000,0.0178141,0.0000000,0.0000000,0.0011069,0.0000000,0.0000000,0.0000000,0.0178141,0.0000000,0.0000000,0.0011069
31.0868100,1.1496000,,-0.9838497,-0.1789762,0.0002300,0.0026929,-0.0084212,-0.0005540,-0.0049272,,,,2.2887256,-12.5695066,-31.0755386,0.0000000,0.0000000,0.0000000,0.0229920,0.3542584,0.0000000,0.0000000,0.0178395,0.0000000,0.0000000,0.0000000,0.3542584,0.0000000,0.0000000,0.0178395,0.0000000,0.0000000,0.0000000,0.3542584,0.0000000,0.0000000,0.0178395,0.0178395,0.0000000,0.0000000,0.0011069,0.0000000,0.0000000,0.0000000,0.0178395,0.0000000,0.0000000,0.0011069,0.0000000,0.0000000,0.0000000,0.0178395,0.0000000,0.0000000,0.0011069
31.1068160,1.0001000,,-0.9838535,-0.1789550,0.0002005,0.0027115,-0.0052558,0.0048881,0.0055930,,,,2.2887256,-12.5695066,-31.0755386,0.0000000,0.0000000,0.0000000,0.0200020,0.3549721,0.0000000,0.0000000,0.0178617,0.0000000,0.0000000,0.0000000,0.3549721,0.0000000,0.0000000,0.0178617,0.0000000,0.0000000,0.0000000,0.3549721,0.0000000,0.0000000,0.0178617,0.0178617,0.0000000,0.0000000,0.0011069,0.0000000,0.0000000,0.0000000,0.0178617,0.0000000,0.0000000,0.0011069,0.0000000,0.0000000,0.0000000,0.0178617,0.0000000,0.0000000,0.0011069
31.1268730,1.0000501,,-0.9838555,-0.1789445,0.0001605,0.0026820,-0.0041996,-0.0012715,0.0032848,,,,2.2887256,-12.5695066,-31.0755386,0.0000000,0.0000000,0.0000000,0.0200010,0.3556866,0.0000000,0.0000000,0.0178838,0.0000000,0.0000000,0.0000000,0.3556866,0.0000000,0.0000000,0.0178838,0.0000000,0.0000000,0.0000000,0.3556866,0.0000000,0.0000000,0.0178838,0.0178838,0.0000000,0.0000000,0.0011069,0.0000000,0.0000000,0.0000000,0.0178838,0.0000000,0.0000000,0.0011069,0.0000000,0.0000000,0.0000000,0.0178838,0.0000000,0.0000000,0.0011069
31.1468140,1.0003500,,-0.9838550,-0.1789484,0.0001955,0.0026058,-0.0201433,0.0270437,-0.0073908,,,,2.2887256,-12.5695066,-31.0755386,0.0000000,0.0000000,0.0000000,0.0200070,0.3564022,0.0000000,0.0000000,0.0179060,0.0000000,0.0000000,0.0000000,0.3564022,0.0000000,0.0000000,0.0179060,0.0000000,0.0000000,0.0000000,0.3564022,0.0000000,0.0000000,0.0179060,0.0179060,0.0000000,0.0000000,0.0011069,0.0000000,0.0000000,0.0000000,0.0179060,0.0000000,0.0000000,0.0011069,0.0000000,0.0000000,0.0000000,0.0179060,0.0000000,0.0000000,0.0011069
31.1626760,,1.0201000,-0.9838550,-0.1789484,0.0001955,0.0026058,,,,-0.0220987,-0.0084801,-0.0000138,2.2884159,-12.5696259,-31.0755386,-0.0000156,-0.0000060,-0.0000000,0.1020100,0.3514073,0.0000000,0.0000000,0.0176550,0.0000000,0.0000000,0.0000000,0.3514073,0.0000000,0.0000000,0.0176550,0.0000000,0.0000000,0.0000000,0.3514073,0.0000000,0.0000000,0.0176550,0.0176550,0.0000000,0.0000000,0.0010943,0.0000000,0.0000000,0.0000000,0.0176550,0.0000000,0.0000000,0.0010943,0.0000000,0.0000000,0.0000000,0.0176550,0.0000000,0.0000000,0.0010943
31.1765340,0.9999000,,-0.9838643,-0.1788974,0.0001226,0.0025886,-0.0195092,0.0114238,-0.0051602,,,,2.2884159,-12.5696259,-31.0755386,0.0000000,0.0000000,0.0000000,0.0199980,0.3521134,0.0000000,0.0000000,0.0176769,0.0000000,0.0000000,0.0000000,0.3521134,0.0000000,0.0000000,0.0176769,0.0000000,0.0000000,0.0000000,0.3521134,0.0000000,0.0000000,0.0176769,0.0176769,0.0000000,0.0000000,0.0010943,0.0000000,0.0000000,0.0000000,0.0176769,0.0000000,0.0000000,0.0010943,0.0000000,0.0000000,0.0000000,0.0176769,0.0000000,0.0000000,0.0010943
31.1897740,1.1496000,,-0.9838622,-0.1789096,0.0001184,0.0025703,-0.0188870,0.0221609,-0.0301680,,,,2.2884159,-12.5696259,-31.0755386,0.0000000,0.0000000,0.0000000,0.0229920,0.3529263,0.0000000,0.0000000,0.0177021,0.0000000,0.0000000,0.0000000,0.3529263,0.0000000,0.0000000,0.0177021,0.0000000,0.0000000,0.0000000,0.3529263,0.0000000,0.0000000,0.0177021,0.0177021,0.0000000,0.0000000,0.0010943,0.0000000,0.0000000,0.0000000,0.0177021,0.0000000,0.0000000,0.0010943,0.0000000,0.0000000,0.0000000,0.0177021,0.0000000,0.0000000,0.0010943
31.2121900,1.0501001,,-0.9838680,-0.1788777,-0.0000066,0.0025501,-0.0000136,0.0130641,-0.0175254,,,,2.2884159,-12.5696259,-31.0755386,0.0000000,0.0000000,0.0000000,0.0210020,0.3536698,0.0000000,0.0000000,0.0177250,0.0000000,0.0000000,0.0000000,0.3536698,0.0000000,0.0000000,0.0177250,0.0000000,0.0000000,0.0000000,0.3536698,0.0000000,0.0000000,0.0177250,0.0177250,0.0000000,0.0000000,0.0010943,0.0000000,0.0000000,0.0000000,0.0177250,0.0000000,0.0000000,0.0010943,0.0000000,0.0000000,0.0000000,0.0177250,0.0000000,0.0000000,0.0010943
31.2306220,0.9999500,,-0.9838703,-0.1788639,-0.0000612,0.0026165,-0.0040122,0.0062269,0.0017353,,,,2.2884159,-12.5696259,-31.0755386,0.0000000,0.0000000,0.0000000,0.0199990,0.3543788,0.0000000,0.0000000,0.0177469,0.0000000,0.0000000,0.0000000,0.3543788,0.0000000,0.0000000,0.0177469,0.0000000,0.0000000,0.0000000,0.3543788,0.0000000,0.0000000,0.0177469,0.0177469,0.0000000,0.0000000,0.0010943,0.0000000,0.0000000,0.0000000,0.0177469,0.0000000,0.0000000,0.0010943,0.0000000,0.0000000,0.0000000,0.0177469,0.0000000,0.0000000,0.0010943
31.2508920,1.0000000,,-0.9838682,-0.1788755,-0.0000629,0.0026301,-0.0083995,0.0152289,-0.0064565,,,,2.2884159,-12.5696259,-31.0755386,0.0000000,0.0000000,0.0000000,0.0200000,0.3550887,0.0000000,0.0000000,0.0177688,0.0000000,0.0000000,0.0000000,0.3550887,0.0000000,0.0000000,0.0177688,0.0000000,0.0000000,0.0000000,0.3550887,0.0000000,0.0000000,0.0177688,0.0177688,0.0000000,0.0000000,0.0010943,0.0000000,0.0000000,0.0000000,0.0177688,0.0000000,0.0000000,0.0010943,0.0000000,0.0000000,0.0000000,0.0177688,0.0000000,0.0000000,0.0010943
31.2668340,,1.0000800,-0.9838682,-0.1788755,-0.0000629,0.0026386,,,,-0.0441278,-0.0165973,-0.0000502,2.2877996,-12.5698576,-31.0755386,-0.0000308,-0.0000116,-0.0000000,0.1000080,0.3501302,0.0000000,0.0000000,0.0175207,0.0000000,0.0000000,0.0000000,0.3501302,0.0000000,0.0000000,0.0175207,0.0000000,0.0000000,0.0000000,0.3501302,0.0000000,0.0000000,0.0175207,0.0175207,0.0000000,0.0000000,0.0010819,0.0000000,0.0000000,0.0000000,0.0175207,0.0000000,0.0000000,0.0010819,0.0000000,0.0000000,0.0000000,0.0175207,0.0000000,0.0000000,0.0010819
31.2806910,1.0000000,,-0.9838694,-0.1788685,-0.0000583,0.0026386,0.0033381,-0.0120007,0.0006780,,,,2.2877996,-12.5698576,-31.0755386,0.0000000,0.0000000,0.0000000,0.0200000,0.3508311,0.0000000,0.0000000,0.0175423,0.0000000,0.0000000,0.0000000,0.3508311,0.0000000,0.0000000,0.0175423,0.0000000,0.0000000,0.0000000,0.3508311,0.0000000,0.0000000,0.0175423,0.0175423,0.0000000,0.0000000,0.0010819,0.0000000,0.0000000,0.0000000,0.0175423,0.0000000,0.0000000,0.0010819,0.0000000,0.0000000,0.0000000,0.0175423,0.0000000,0.0000000,0.0010819
31.2936930,1.1500000,,-0.9838672,-0.1788810,-0.0000093,0.0026209,-0.0050982,-0.0083121,-0.0057645,,,,2.2877996,-12.5698576,-31.0755386,0.0000000,0.0000000,0.0000000,0.0230000,0.3516380,0.0000000,0.0000000,0.0175672,0.0000000,0.0000000,0.0000000,0.3516380,0.0000000,0.0000000,0.0175672,0.0000000,0.0000000,0.0000000,0.3516380,0.0000000,0.0000000,0.0175672,0.0175672,0.0000000,0.0000000,0.0010819,0.0000000,0.0000000,0.0000000,0.0175672,0.0000000,0.0000000,0.0010819,0.0000000,0.0000000,0.0000000,0.0175672,0.0000000,0.0000000,0.0010819
31.3149630,1.0501500,,-0.9838736,-0.1788457,-0.0000771,0.0026347,0.0029440,-0.0042552,-0.0121596,,,,2.2877996,-12.5698576,-31.0755386,0.0000000,0.0000000,0.0000000,0.0210030,0.3523760,0.0000000,0.0000000,0.0175899,0.0000000,0.0000000,0.0000000,0.3523760,0.0000000,0.0000000,0.0175899,0.0000000,0.0000000,0.0000000,0.3523760,0.0000000,0.0000000,0.0175899,0.0175899,0.0000000,0.0000000,0.0010819,0.0000000,0.0000000,0.0000000,0.0175899,0.0000000,0.0000000,0.0010819,0.0000000,0.0000000,0.0000000,0.0175899,0.0000000,0.0000000,0.0010819
31.3349250,1.0002501,,-0.9838767,-0.1788281,-0.0001325,0.0026565,0.0042262,-0.0075826,-0.0019294,,,,2.2877996,-12.5698576,-31.0755386,0.0000000,0.0000000,0.0000000,0.0200050,0.3530797,0.0000000,0.0000000,0.0176116,0.0000000,0.0000000,0.0000000,0.3530797,0.0000000,0.0000000,0.0176116,0.0000000,0.0000000,0.0000000,0.3530797,0.0000000,0.0000000,0.0176116,0.0176116,0.0000000,0.0000000,0.0010819,0.0000000,0.0000000,0.0000000,0.0176116,0.0000000,0.0000000,0.0010819,0.0000000,0.0000000,0.0000000,0.0176116,0.0000000,0.0000000,0.0010819
31.3551340,,0.9998000,-0.9838784,-0.1788194,-0.0001828,0.0026410,,,,-0.0181823,0.0014747,0.0000203,2.2875471,-12.5698376,-31.0755386,-0.0000126,0.0000010,0.0000000,0.0999800,0.3481768,0.0000000,0.0000000,0.0173670,0.0000000,0.0000000,0.0000000,0.3481768,0.0000000,0.0000000,0.0173670,0.0000000,0.0000000,0.0000000,0.3481768,0.0000000,0.0000000,0.0173670,0.0173670,0.0000000,0.0000000,0.0010697,0.0000000,0.0000000,0.0000000,0.0173670,0.0000000,0.0000000,0.0010697,0.0000000,0.0000000,0.0000000,0.0173670,0.0000000,0.0000000,0.0010697
31.3685120,1.0007000,,-0.9838784,-0.1788194,-0.0001828,0.0026410,0.0109403,0.0026632,0.0012326,,,,2.2875471,-12.5698376,-31.0755386,0.0000000,0.0000000,0.0000000,0.0200140,0.3488720,0.0000000,0.0000000,0.0173884,0.0000000,0.0000000,0.0000000,0.3488720,0.0000000,0.0000000,0.0173884,0.0000000,0.0000000,0.0000000,0.3488720,0.0000000,0.0000000,0.0173884,0.0173884,0.0000000,0.0000000,0.0010697,0.0000000,0.0000000,0.0000000,0.0173884,0.0000000,0.0000000,0.0010697,0.0000000,0.0000000,0.0000000,0.0173884,0.0000000,0.0000000,0.0010697
31.3817500,1.3488500,,-0.9838783,-0.1788217,-0.0002163,0.0025237,0.0135878,0.0041468,0.0023253,,,,2.2875471,-12.5698376,-31.0755386,0.0000000,0.0000000,0.0000000,0.0269770,0.3498102,0.0000000,0.0000000,0.0174173,0.0000000,0.0000000,0.0000000,0.3498102,0.0000000,0.0000000,0.0174173,0.0000000,0.0000000,0.0000000,0.3498102,0.0000000,0.0000000,0.0174173,0.0174173,0.0000000,0.0000000,0.0010697,0.0000000,0.0000000,0.0000000,0.0174173,0.0000000,0.0000000,0.0010697,0.0000000,0.0000000,0.0000000,0.0174173,0.0000000,0.0000000,0.0010697
31.4030560,1.0001000,,-0.9838783,-0.1788229,-0.0002248,0.0024392,0.0024833,-0.0002841,-0.0029878,,,,2.2875471,-12.5698376,-31.0755386,0.0000000,0.0000000,0.0000000,0.0200020,0.3505069,0.0000000,0.0000000,0.0174387,0.0000000,0.0000000,0.0000000,0.3505069,0.0000000,0.0000000,0.0174387,0.0000000,0.0000000,0.0000000,0.3505069,0.0000000,0.0000000,0.0174387,0.0174387,0.0000000,0.0000000,0.0010697,0.0000000,0.0000000,0.0000000,0.0174387,0.0000000,0.0000000,0.0010697,0.0000000,0.0000000,0.0000000,0.0174387,0.0000000,0.0000000,0.0010697
31.4218540,1.0002999,,-0.9838839,-0.1787923,-0.0002660,0.0024108,0.0010051,-0.0129823,0.0038772,,,,2.2875471,-12.5698376,-31.0755386,0.0000000,0.0000000,0.0000000,0.0200060,0.3512047,0.0000000,0.0000000,0.0174601,0.0000000,0.0000000,0.0000000,0.3512047,0.0000000,0.0000000,0.0174601,0.0000000,0.0000000,0.0000000,0.3512047,0.0000000,0.0000000,0.0174601,0.0174601,0.0000000,0.0000000,0.0010697,0.0000000,0.0000000,0.0000000,0.0174601,0.0000000,0.0000000,0.0010697,0.0000000,0.0000000,0.0000000,0.0174601,0.0000000,0.0000000,0.0010697
31.4427540,1.0497000,,-0.9838896,-0.1787596,-0.0002644,0.0024680,-0.0019159,-0.0096650,0.0063331,,,,2.2875471,-12.5698376,-31.0755386,0.0000000,0.0000000,0.0000000,0.0209940,0.3519378,0.0000000,0.0000000,0.0174825,0.0000000,0.0000000,0.0000000,0.3519378,0.0000000,0.0000000,0.0174825,0.0000000,0.0000000,0.0000000,0.3519378,0.0000000,0.0000000,0.0174825,0.0174825,0.0000000,0.0000000,0.0010697,0.0000000,0.0000000,0.0000000,0.0174825,0.0000000,0.0000000,0.0010697,0.0000000,0.0000000,0.0000000,0.0174825,0.0000000,0.0000000,0.0010697
31.4601780,,1.0200399,-0.9838896,-0.1787596,-0.0002644,0.0024680,,,,-0.0121906,-0.0127244,-0.0000586,2.2873783,-12.5700140,-31.0755386,-0.0000084,-0.0000087,-0.0000000,0.1020040,0.3470663,0.0000000,0.0000000,0.0172406,0.0000000,0.0000000,0.0000000,0.3470663,0.0000000,0.0000000,0.0172406,0.0000000,0.0000000,0.0000000,0.3470663,0.0000000,0.0000000,0.0172406,0.0172405,0.0000000,0.0000000,0.0010577,0.0000000,0.0000000,0.0000000,0.0172405,0.0000000,0.0000000,0.0010577,0.0000000,0.0000000,0.0000000,0.0172405,0.0000000,0.0000000,0.0010577
31.4735830,1.1002001,,-0.9838840,-0.1787915,-0.0002530,0.0024096,-0.0057645,-0.0052445,0.0004810,,,,2.2873783,-12.5700140,-31.0755386,0.0000000,0.0000000,0.0000000,0.0220040,0.3478251,0.0000000,0.0000000,0.0172638,0.0000000,0.0000000,0.0000000,0.3478251,0.0000000,0.0000000,0.0172638,0.0000000,0.0000000,0.0000000,0.3478251,0.0000000,0.0000000,0.0172638,0.0172638,0.0000000,0.0000000,0.0010577,0.0000000,0.0000000,0.0000000,0.0172638,0.0000000,0.0000000,0.0010577,0.0000000,0.0000000,0.0000000,0.0172638,0.0000000,0.0000000,0.0010577
31.4868850,1.0997001,,-0.9838879,-0.1787705,-0.0002567,0.0023835,-0.0042861,-0.0230538,0.0080530,,,,2.2873783,-12.5700140,-31.0755386,0.0000000,0.0000000,0.0000000,0.0219940,0.3485844,0.0000000,0.0000000,0.0172871,0.0000000,0.0000000,0.0000000,0.3485844,0.0000000,0.0000000,0.0172871,0.0000000,0.0000000,0.0000000,0.3485844,0.0000000,0.0000000,0.0172871,0.0172871,0.0000000,0.0000000,0.0010577,0.0000000,0.0000000,0.0000000,0.0172871,0.0000000,0.0000000,0.0010577,0.0000000,0.0000000,0.0000000,0.0172871,0.0000000,0.0000000,0.0010577
31.5070230,1.0001501,,-0.9838898,-0.1787601,-0.0002690,0.0023709,-0.0084525,-0.0131596,0.0059796,,,,2.2873783,-12.5700140,-31.0755386,0.0000000,0.0000000,0.0000000,0.0200030,0.3492760,0.0000000,0.0000000,0.0173082,0.0000000,0.0000000,0.0000000,0.3492760,0.0000000,0.0000000,0.0173082,0.0000000,0.0000000,0.0000000,0.3492760,0.0000000,0.0000000,0.0173082,0.0173082,0.0000000,0.0000000,0.0010577,0.0000000,0.0000000,0.0000000,0.0173082,0.0000000,0.0000000,0.0010577,0.0000000,0.0000000,0.0000000,0.0173082,0.0000000,0.0000000,0.0010577
31.5268160,1.0002999,,-0.9838967,-0.1787224,-0.0003183,0.0023573,0.0008549,-0.0219149,0.0195914,,,,2.2873783,-12.5700140,-31.0755386,0.0000000,0.0000000,0.0000000,0.0200060,0.3499686,0.0000000,0.0000000,0.0173294,0.0000000,0.0000000,0.0000000,0.3499686,0.0000000,0.0000000,0.0173294,0.0000000,0.0000000,0.0000000,0.3499686,0.0000000,0.0000000,0.0173294,0.0173294,0.0000000,0.0000000,0.0010577,0.0000000,0.0000000,0.0000000,0.0173294,0.0000000,0.0000000,0.0010577,0.0000000,0.0000000,0.0000000,0.0173294,0.0000000,0.0000000,0.0010577
31.5477060,1.0497501,,-0.9839000,-0.1787036,-0.0003501,0.0023891,0.0103686,-0.0086381,0.0032039,,,,2.2873783,-12.5700140,-31.0755386,0.0000000,0.0000000,0.0000000,0.0209950,0.3506962,0.0000000,0.0000000,0.0173516,0.0000000,0.0000000,0.0000000,0.3506962,0.0000000,0.0000000,0.0173516,0.0000000,0.0000000,0.0000000,0.3506962,0.0000000,0.0000000,0.0173516,0.0173516,0.0000000,0.0000000,0.0010577,0.0000000,0.0000000,0.0000000,0.0173516,0.0000000,0.0000000,0.0010577,0.0000000,0.0000000,0.0000000,0.0173516,0.0000000,0.0000000,0.0010577
31.5651710,,0.9999800,-0.9839000,-0.1787036,-0.0003501,0.0023891,,,,-0.0293715,-0.0111961,-0.0000492,2.2869732,-12.5701685,-31.0755386,-0.0000200,-0.0000076,-0.0000000,0.0999980,0.3458588,0.0000000,0.0000000,0.0171123,0.0000000,0.0000000,0.0000000,0.3458588,0.0000000,0.0000000,0.0171123,0.0000000,0.0000000,0.0000000,0.3458588,0.0000000,0.0000000,0.0171123,0.0171123,0.0000000,0.0000000,0.0010459,0.0000000,0.0000000,0.0000000,0.0171123,0.0000000,0.0000000,0.0010459,0.0000000,0.0000000,0.0000000,0.0171123,0.0000000,0.0000000,0.0010459
31.5785540,1.1001501,,-0.9839019,-0.1786942,-0.0003494,0.0023289,0.0029718,0.0190956,-0.0027926,,,,2.2869732,-12.5701685,-31.0755386,0.0000000,0.0000000,0.0000000,0.0220030,0.3466119,0.0000000,0.0000000,0.0171353,0.0000000,0.0000000,0.0000000,0.3466119,0.0000000,0.0000000,0.0171353,0.0000000,0.0000000,0.0000000,0.3466119,0.0000000,0.0000000,0.0171353,0.0171353,0.0000000,0.0000000,0.0010459,0.0000000,0.0000000,0.0000000,0.0171353,0.0000000,0.0000000,0.0010459,0.0000000,0.0000000,0.0000000,0.0171353,0.0000000,0.0000000,0.0010459
31.5918230,1.0996500,,-0.9839067,-0.1786675,-0.0003245,0.0023190,0.0103055,0.0112797,0.0017775,,,,2.2869732,-12.5701685,-31.0755386,0.0000000,0.0000000,0.0000000,0.0219930,0.3473656,0.0000000,0.0000000,0.0171583,0.0000000,0.0000000,0.0000000,0.3473656,0.0000000,0.0000000,0.0171583,0.0000000,0.0000000,0.0000000,0.3473656,0.0000000,0.0000000,0.0171583,0.0171583,0.0000000,0.0000000,0.0010459,0.0000000,0.0000000,0.0000000,0.0171583,0.0000000,0.0000000,0.0010459,0.0000000,0.0000000,0.0000000,0.0171583,0.0000000,0.0000000,0.0010459
31.6120200,1.0001501,,-0.9839092,-0.1786542,-0.0003142,0.0022983,0.0078688,0.0066088,0.0004005,,,,2.2869732,-12.5701685,-31.0755386,0.0000000,0.0000000,0.0000000,0.0200030,0.3480520,0.0000000,0.0000000,0.0171792,0.0000000,0.0000000,0.0000000,0.3480520,0.0000000,0.0000000,0.0171792,0.0000000,0.0000000,0.0000000,0.3480520,0.0000000,0.0000000,0.0171792,0.0171792,0.0000000,0.0000000,0.0010459,0.0000000,0.0000000,0.0000000,0.0171792,0.0000000,0.0000000,0.0010459,0.0000000,0.0000000,0.0000000,0.0171792,0.0000000,0.0000000,0.0010459
31.6318410,1.0002501,,-0.9839180,-0.1786060,-0.0003612,0.0022770,0.0075278,0.0052117,0.0058155,,,,2.2869732,-12.5701685,-31.0755386,0.0000000,0.0000000,0.0000000,0.0200050,0.3487394,0.0000000,0.0000000,0.0172001,0.0000000,0.0000000,0.0000000,0.3487394,0.0000000,0.0000000,0.0172001,0.0000000,0.0000000,0.0000000,0.3487394,0.0000000,0.0000000,0.0172001,0.0172001,0.0000000,0.0000000,0.0010459,0.0000000,0.0000000,0.0000000,0.0172001,0.0000000,0.0000000,0.0010459,0.0000000,0.0000000,0.0000000,0.0172001,0.0000000,0.0000000,0.0010459
31.6516350,0.9998000,,-0.9839212,-0.1785874,-0.0003541,0.0023349,0.0051982,-0.0026660,0.0119409,,,,2.2869732,-12.5701685,-31.0755386,0.0000000,0.0000000,0.0000000,0.0199960,0.3494272,0.0000000,0.0000000,0.0172210,0.0000000,0.0000000,0.0000000,0.3494272,0.0000000,0.0000000,0.0172210,0.0000000,0.0000000,0.0000000,0.3494272,0.0000000,0.0000000,0.0172210,0.0172210,0.0000000,0.0000000,0.0010459,0.0000000,0.0000000,0.0000000,0.0172210,0.0000000,0.0000000,0.0010459,0.0000000,0.0000000,0.0000000,0.0172210,0.0000000,0.0000000,0.0010459
31.6682950,,1.0200000,-0.9839212,-0.1785874,-0.0003541,0.0023349,,,,-0.0224352,-0.0084248,-0.0000367,2.2866650,-12.5702839,-31.0755386,-0.0000152,-0.0000057,-0.0000000,0.1020000,0.3446245,0.0000000,0.0000000,0.0169844,0.0000000,0.0000000,0.0000000,0.3446245,0.0000000,0.0000000,0.0169844,0.0000000,0.0000000,0.0000000,0.3446245,0.0000000,0.0000000,0.0169844,0.0169843,0.0000000,0.0000000,0.0010343,0.0000000,0.0000000,0.0000000,0.0169843,0.0000000,0.0000000,0.0010343,0.0000000,0.0000000,0.0000000,0.0169843,0.0000000,0.0000000,0.0010343
31.6807710,1.0005001,,-0.9839221,-0.1785828,-0.0003470,0.0023377,0.0035604,0.0177557,-0.0103870,,,,2.2866650,-12.5702839,-31.0755386,0.0000000,0.0000000,0.0000000,0.0200100,0.3453043,0.0000000,0.0000000,0.0170050,0.0000000,0.0000000,0.0000000,0.3453043,0.0000000,0.0000000,0.0170050,0.0000000,0.0000000,0.0000000,0.3453043,0.0000000,0.0000000,0.0170050,0.0170050,0.0000000,0.0000000,0.0010343,0.0000000,0.0000000,0.0000000,0.0170050,0.0000000,0.0000000,0.0010343,0.0000000,0.0000000,0.0000000,0.0170050,0.0000000,0.0000000,0.0010343
31.6935830,1.0993000,,-0.9839242,-0.1785722,-0.0003602,0.0022782,0.0073649,0.0107547,-0.0025079,,,,2.2866650,-12.5702839,-31.0755386,0.0000000,0.0000000,0.0000000,0.0219860,0.3460520,0.0000000,0.0000000,0.0170278,0.0000000,0.0000000,0.0000000,0.3460520,0.0000000,0.0000000,0.0170278,0.0000000,0.0000000,0.0000000,0.3460520,0.0000000,0.0000000,0.0170278,0.0170278,0.0000000,0.0000000,0.0010343,0.0000000,0.0000000,0.0000000,0.0170278,0.0000000,0.0000000,0.0010343,0.0000000,0.0000000,0.0000000,0.0170278,0.0000000,0.0000000,0.0010343
31.7148490,1.0501001,,-0.9839214,-0.1785875,-0.0003122,0.0022581,-0.0079600,0.0158372,-0.0032071,,,,2.2866650,-12.5702839,-31.0755386,0.0000000,0.0000000,0.0000000,0.0210020,0.3467672,0.0000000,0.0000000,0.0170495,0.0000000,0.0000000,0.0000000,0.3467672,0.0000000,0.0000000,0.0170495,0.0000000,0.0000000,0.0000000,0.3467672,0.0000000,0.0000000,0.0170495,0.0170495,0.0000000,0.0000000,0.0010343,0.0000000,0.0000000,0.0000000,0.0170495,0.0000000,0.0000000,0.0010343,0.0000000,0.0000000,0.0000000,0.0170495,0.0000000,0.0000000,0.0010343
31.7349940,1.0002999,,-0.9839230,-0.1785789,-0.0003001,0.0022381,0.0038859,-0.0084998,0.0001054,,,,2.2866650,-12.5702839,-31.0755386,0.0000000,0.0000000,0.0000000,0.0200060,0.3474494,0.0000000,0.0000000,0.0170702,0.0000000,0.0000000,0.0000000,0.3474494,0.0000000,0.0000000,0.0170702,0.0000000,0.0000000,0.0000000,0.3474494,0.0000000,0.0000000,0.0170702,0.0170702,0.0000000,0.0000000,0.0010343,0.0000000,0.0000000,0.0000000,0.0170702,0.0000000,0.0000000,0.0010343,0.0000000,0.0000000,0.0000000,0.0170702,0.0000000,0.0000000,0.0010343
31.7548580,0.9999500,,-0.9839238,-0.1785746,-0.0002718,0.0022297,0.0015539,-0.0084537,0.0088418,,,,2.2866650,-12.5702839,-31.0755386,0.0000000,0.0000000,0.0000000,0.0199990,0.3481322,0.0000000,0.0000000,0.0170909,0.0000000,0.0000000,0.0000000,0.3481322,0.0000000,0.0000000,0.0170909,0.0000000,0.0000000,0.0000000,0.3481322,0.0000000,0.0000000,0.0170909,0.0170909,0.0000000,0.0000000,0.0010343,0.0000000,0.0000000,0.0000000,0.0170909,0.0000000,0.0000000,0.0010343,0.0000000,0.0000000,0.0000000,0.0170909,0.0000000,0.0000000,0.0010343
31.7707700,,1.0001000,-0.9839238,-0.1785746,-0.0002718,0.0022867,,,,-0.0441445,-0.0165695,-0.0000628,2.2860603,-12.5705109,-31.0755386,-0.0000297,-0.0000111,-0.0000000,0.1000100,0.3433648,0.0000000,0.0000000,0.0168568,0.0000000,0.0000000,0.0000000,0.3433648,0.0000000,0.0000000,0.0168568,0.0000000,0.0000000,0.0000000,0.3433648,0.0000000,0.0000000,0.0168568,0.0168568,0.0000000,0.0000000,0.0010228,0.0000000,0.0000000,0.0000000,0.0168568,0.0000000,0.0000000,0.0010228,0.0000000,0.0000000,0.0000000,0.0168568,0.0000000,0.0000000,0.0010228
31.7845340,1.0002501,,-0.9839218,-0.1785850,-0.0002354,0.0022867,0.0018756,0.0024412,-0.0036357,,,,2.2860603,-12.5705109,-31.0755386,0.0000000,0.0000000,0.0000000,0.0200050,0.3440392,0.0000000,0.0000000,0.0168773,0.0000000,0.0000000,0.0000000,0.3440392,0.0000000,0.0000000,0.0168773,0.0000000,0.0000000,0.0000000,0.3440392,0.0000000,0.0000000,0.0168773,0.0168773,0.0000000,0.0000000,0.0010228,0.0000000,0.0000000,0.0000000,0.0168773,0.0000000,0.0000000,0.0010228,0.0000000,0.0000000,0.0000000,0.0168773,0.0000000,0.0000000,0.0010228
31.7977550,1.1494001,,-0.9839244,-0.1785717,-0.0002415,0.0022001,-0.0070044,0.0008163,0.0023325,,,,2.2860603,-12.5705109,-31.0755386,0.0000000,0.0000000,0.0000000,0.0229880,0.3448152,0.0000000,0.0000000,0.0169008,0.0000000,0.0000000,0.0000000,0.3448152,0.0000000,0.0000000,0.0169008,0.0000000,0.0000000,0.0000000,0.3448152,0.0000000,0.0000000,0.0169008,0.0169008,0.0000000,0.0000000,0.0010228,0.0000000,0.0000000,0.0000000,0.0169008,0.0000000,0.0000000,0.0010228,0.0000000,0.0000000,0.0000000,0.0169008,0.0000000,0.0000000,0.0010228
31.8190250,1.0501500,,-0.9839260,-0.1785626,-0.0002555,0.0022259,0.0009610,-0.0169487,0.0136174,,,,2.2860603,-12.5705109,-31.0755386,0.0000000,0.0000000,0.0000000,0.0210030,0.3455251,0.0000000,0.0000000,0.0169223,0.0000000,0.0000000,0.0000000,0.3455251,0.0000000,0.0000000,0.0169223,0.0000000,0.0000000,0.0000000,0.3455251,0.0000000,0.0000000,0.0169223,0.0169223,0.0000000,0.0000000,0.0010228,0.0000000,0.0000000,0.0000000,0.0169223,0.0000000,0.0000000,0.0010228,0.0000000,0.0000000,0.0000000,0.0169223,0.0000000,0.0000000,0.0010228
31.8388370,0.9999000,,-0.9839236,-0.1785765,-0.0002612,0.0022126,0.0015410,-0.0002499,-0.0068632,,,,2.2860603,-12.5705109,-31.0755386,0.0000000,0.0000000,0.0000000,0.0199980,0.3462019,0.0000000,0.0000000,0.0169428,0.0000000,0.0000000,0.0000000,0.3462019,0.0000000,0.0000000,0.0169428,0.0000000,0.0000000,0.0000000,0.3462019,0.0000000,0.0000000,0.0169428,0.0169427,0.0000000,0.0000000,0.0010228,0.0000000,0.0000000,0.0000000,0.0169427,0.0000000,0.0000000,0.0010228,0.0000000,0.0000000,0.0000000,0.0169427,0.0000000,0.0000000,0.0010228
31.8593700,,0.9999000,-0.9839263,-0.1785614,-0.0002560,0.0021878,,,,-0.0372960,-0.0139990,-0.0000520,2.2855525,-12.5707016,-31.0755386,-0.0000249,-0.0000093,-0.0000000,0.0999900,0.3414869,0.0000000,0.0000000,0.0167120,0.0000000,0.0000000,0.0000000,0.3414869,0.0000000,0.0000000,0.0167120,0.0000000,0.0000000,0.0000000,0.3414869,0.0000000,0.0000000,0.0167120,0.0167120,0.0000000,0.0000000,0.0010115,0.0000000,0.0000000,0.0000000,0.0167120,0.0000000,0.0000000,0.0010115,0.0000000,0.0000000,0.0000000,0.0167120,0.0000000,0.0000000,0.0010115
31.8726580,1.0002000,,-0.9839263,-0.1785614,-0.0002560,0.0021878,0.0016097,-0.0168333,0.0038926,,,,2.2855525,-12.5707016,-31.0755386,0.0000000,0.0000000,0.0000000,0.0200040,0.3421555,0.0000000,0.0000000,0.0167322,0.0000000,0.0000000,0.0000000,0.3421555,0.0000000,0.0000000,0.0167322,0.0000000,0.0000000,0.0000000,0.3421555,0.0000000,0.0000000,0.0167322,0.0167322,0.0000000,0.0000000,0.0010115,0.0000000,0.0000000,0.0000000,0.0167322,0.0000000,0.0000000,0.0010115,0.0000000,0.0000000,0.0000000,0.0167322,0.0000000,0.0000000,0.0010115
31.8858200,1.3497500,,-0.9839278,-0.1785538,-0.0002188,0.0021471,-0.0080452,-0.0046630,0.0012139,,,,2.2855525,-12.5707016,-31.0755386,0.0000000,0.0000000,0.0000000,0.0269950,0.3430589,0.0000000,0.0000000,0.0167595,0.0000000,0.0000000,0.0000000,0.3430589,0.0000000,0.0000000,0.0167595,0.0000000,0.0000000,0.0000000,0.3430589,0.0000000,0.0000000,0.0167595,0.0167595,0.0000000,0.0000000,0.0010115,0.0000000,0.0000000,0.0000000,0.0167595,0.0000000,0.0000000,0.0010115,0.0000000,0.0000000,0.0000000,0.0167595,0.0000000,0.0000000,0.0010115
31.9060260,1.0003500,,-0.9839286,-0.1785499,-0.0001543,0.0021348,-0.0098591,0.0026734,-0.0020786,,,,2.2855525,-12.5707016,-31.0755386,0.0000000,0.0000000,0.0000000,0.0200070,0.3437295,0.0000000,0.0000000,0.0167798,0.0000000,0.0000000,0.0000000,0.3437295,0.0000000,0.0000000,0.0167798,0.0000000,0.0000000,0.0000000,0.3437295,0.0000000,0.0000000,0.0167798,0.0167798,0.0000000,0.0000000,0.0010115,0.0000000,0.0000000,0.0000000,0.0167798,0.0000000,0.0000000,0.0010115,0.0000000,0.0000000,0.0000000,0.0167798,0.0000000,0.0000000,0.0010115
31.9257830,1.0000501,,-0.9839244,-0.1785731,-0.0000823,0.0021312,-0.0116663,-0.0034012,0.0087263,,,,2.2855525,-12.5707016,-31.0755386,0.0000000,0.0000000,0.0000000,0.0200010,0.3444008,0.0000000,0.0000000,0.0168000,0.0000000,0.0000000,0.0000000,0.3444008,0.0000000,0.0000000,0.0168000,0.0000000,0.0000000,0.0000000,0.3444008,0.0000000,0.0000000,0.0168000,0.0168000,0.0000000,0.0000000,0.0010115,0.0000000,0.0000000,0.0000000,0.0168000,0.0000000,0.0000000,0.0010115,0.0000000,0.0000000,0.0000000,0.0168000,0.0000000,0.0000000,0.0010115
31.9459270,1.0000501,,-0.9839243,-0.1785731,-0.0000290,0.0021736,-0.0113263,0.0039070,0.0038749,,,,2.2855525,-12.5707016,-31.0755386,0.0000000,0.0000000,0.0000000,0.0200010,0.3450728,0.0000000,0.0000000,0.0168202,0.0000000,0.0000000,0.0000000,0.3450728,0.0000000,0.0000000,0.0168202,0.0000000,0.0000000,0.0000000,0.3450728,0.0000000,0.0000000,0.0168202,0.0168202,0.0000000,0.0000000,0.0010115,0.0000000,0.0000000,0.0000000,0.0168202,0.0000000,0.0000000,0.0010115,0.0000000,0.0000000,0.0000000,0.0168202,0.0000000,0.0000000,0.0010115
31.9619020,,1.0000000,-0.9839243,-0.1785731,-0.0000290,0.0020895,,,,-0.0225939,-0.0084804,-0.0000201,2.2852459,-12.5708170,-31.0755386,-0.0000150,-0.0000056,-0.0000000,0.1000000,0.3403883,0.0000000,0.0000000,0.0165919,0.0000000,0.0000000,0.0000000,0.3403883,0.0000000,0.0000000,0.0165919,0.0000000,0.0000000,0.0000000,0.3403883,0.0000000,0.0000000,0.0165919,0.0165919,0.0000000,0.0000000,0.0010004,0.0000000,0.0000000,0.0000000,0.0165919,0.0000000,0.0000000,0.0010004,0.0000000,0.0000000,0.0000000,0.0165919,0.0000000,0.0000000,0.0010004
31.9755840,0.9996000,,-0.9839253,-0.1785683,-0.0000424,0.0020895,0.0097940,0.0036778,-0.0012364,,,,2.2852459,-12.5708170,-31.0755386,0.0000000,0.0000000,0.0000000,0.0199920,0.3410517,0.0000000,0.0000000,0.0166119,0.0000000,0.0000000,0.0000000,0.3410517,0.0000000,0.0000000,0.0166119,0.0000000,0.0000000,0.0000000,0.3410517,0.0000000,0.0000000,0.0166119,0.0166119,0.0000000,0.0000000,0.0010004,0.0000000,0.0000000,0.0000000,0.0166119,0.0000000,0.0000000,0.0010004,0.0000000,0.0000000,0.0000000,0.0166119,0.0000000,0.0000000,0.0010004
31.9886970,1.1499500,,-0.9839287,-0.1785499,-0.0000692,0.0020614,0.0090855,0.0172503,0.0062177,,,,2.2852459,-12.5708170,-31.0755386,0.0000000,0.0000000,0.0000000,0.0229990,0.3418158,0.0000000,0.0000000,0.0166349,0.0000000,0.0000000,0.0000000,0.3418158,0.0000000,0.0000000,0.0166349,0.0000000,0.0000000,0.0000000,0.3418158,0.0000000,0.0000000,0.0166349,0.0166349,0.0000000,0.0000000,0.0010004,0.0000000,0.0000000,0.0000000,0.0166349,0.0000000,0.0000000,0.0010004,0.0000000,0.0000000,0.0000000,0.0166349,0.0000000,0.0000000,0.0010004
32.0098650,1.0502001,,-0.9839303,-0.1785406,-0.0000884,0.0020623,0.0155444,0.0128366,0.0099448,,,,2.2852459,-12.5708170,-31.0755386,0.0000000,0.0000000,0.0000000,0.0210040,0.3425146,0.0000000,0.0000000,0.0166559,0.0000000,0.0000000,0.0000000,0.3425146,0.0000000,0.0000000,0.0166559,0.0000000,0.0000000,0.0000000,0.3425146,0.0000000,0.0000000,0.0166559,0.0166559,0.0000000,0.0000000,0.0010004,0.0000000,0.0000000,0.0000000,0.0166559,0.0000000,0.0000000,0.0010004,0.0000000,0.0000000,0.0000000,0.0166559,0.0000000,0.0000000,0.0010004
32.0298880,1.0001501,,-0.9839296,-0.1785451,-0.0000971,0.0020458,-0.0034354,0.0250035,0.0027751,,,,2.2852459,-12.5708170,-31.0755386,0.0000000,0.0000000,0.0000000,0.0200030,0.3431810,0.0000000,0.0000000,0.0166759,0.0000000,0.0000000,0.0000000,0.3431810,0.0000000,0.0000000,0.0166759,0.0000000,0.0000000,0.0000000,0.3431810,0.0000000,0.0000000,0.0166759,0.0166759,0.0000000,0.0000000,0.0010004,0.0000000,0.0000000,0.0000000,0.0166759,0.0000000,0.0000000,0.0010004,0.0000000,0.0000000,0.0000000,0.0166759,0.0000000,0.0000000,0.0010004
32.0511420,1.0001000,,-0.9839308,-0.1785382,-0.0001344,0.0020651,0.0016545,0.0118380,0.0048055,,,,2.2852459,-12.5708170,-31.0755386,0.0000000,0.0000000,0.0000000,0.0200020,0.3438480,0.0000000,0.0000000,0.0166959,0.0000000,0.0000000,0.0000000,0.3438480,0.0000000,0.0000000,0.0166959,0.0000000,0.0000000,0.0000000,0.3438480,0.0000000,0.0000000,0.0166959,0.0166959,0.0000000,0.0000000,0.0010004,0.0000000,0.0000000,0.0000000,0.0166959,0.0000000,0.0000000,0.0010004,0.0000000,0.0000000,0.0000000,0.0166959,0.0000000,0.0000000,0.0010004
32.0668380,,1.0000000,-0.9839308,-0.1785382,-0.0001344,0.0019914,,,,-0.0441489,-0.0165674,-0.0000472,2.2846487,-12.5710411,-31.0755386,-0.0000290,-0.0000109,-0.0000000,0.1000000,0.3391965,0.0000000,0.0000000,0.0164701,0.0000000,0.0000000,0.0000000,0.3391965,0.0000000,0.0000000,0.0164701,0.0000000,0.0000000,0.0000000,0.3391965,0.0000000,0.0000000,0.0164701,0.0164701,0.0000000,0.0000000,0.0009895,0.0000000,0.0000000,0.0000000,0.0164701,0.0000000,0.0000000,0.0009895,0.0000000,0.0000000,0.0000000,0.0164701,0.0000000,0.0000000,0.0009895
32.0805520,1.0000000,,-0.9839323,-0.1785311,-0.0001299,0.0019914,-0.0023237,0.0190187,-0.0032125,,,,2.2846487,-12.5710411,-31.0755386,0.0000000,0.0000000,0.0000000,0.0200000,0.3398553,0.0000000,0.0000000,0.0164899,0.0000000,0.0000000,0.0000000,0.3398553,0.0000000,0.0000000,0.0164899,0.0000000,0.0000000,0.0000000,0.3398553,0.0000000,0.0000000,0.0164899,0.0164899,0.0000000,0.0000000,0.0009895,0.0000000,0.0000000,0.0000000,0.0164899,0.0000000,0.0000000,0.0009895,0.0000000,0.0000000,0.0000000,0.0164899,0.0000000,0.0000000,0.0009895
32.0937380,1.1995500,,-0.9839309,-0.1785378,-0.0001370,0.0020367,0.0046746,0.0078766,-0.0116160,,,,2.2846487,-12.5710411,-31.0755386,0.0000000,0.0000000,0.0000000,0.0239910,0.3406465,0.0000000,0.0000000,0.0165136,0.0000000,0.0000000,0.0000000,0.3406465,0.0000000,0.0000000,0.0165136,0.0000000,0.0000000,0.0000000,0.3406465,0.0000000,0.0000000,0.0165136,0.0165136,0.0000000,0.0000000,0.0009895,0.0000000,0.0000000,0.0000000,0.0165136,0.0000000,0.0000000,0.0009895,0.0000000,0.0000000,0.0000000,0.0165136,0.0000000,0.0000000,0.0009895
32.1149470,1.0502001,,-0.9839367,-0.1785066,-0.0001349,0.0020017,0.0079602,0.0051209,-0.0106908,,,,2.2846487,-12.5710411,-31.0755386,0.0000000,0.0000000,0.0000000,0.0210040,0.3413402,0.0000000,0.0000000,0.0165344,0.0000000,0.0000000,0.0000000,0.3413402,0.0000000,0.0000000,0.0165344,0.0000000,0.0000000,0.0000000,0.3413402,0.0000000,0.0000000,0.0165344,0.0165344,0.0000000,0.0000000,0.0009895,0.0000000,0.0000000,0.0000000,0.0165344,0.0000000,0.0000000,0.0009895,0.0000000,0.0000000,0.0000000,0.0165344,0.0000000,0.0000000,0.0009895
32.1349350,1.0002501,,-0.9839396,-0.1784910,-0.0001345,0.0019542,-0.0001474,-0.0077927,-0.0048571,,,,2.2846487,-12.5710411,-31.0755386,0.0000000,0.0000000,0.0000000,0.0200050,0.3420018,0.0000000,0.0000000,0.0165542,0.0000000,0.0000000,0.0000000,0.3420018,0.0000000,0.0000000,0.0165542,0.0000000,0.0000000,0.0000000,0.3420018,0.0000000,0.0000000,0.0165542,0.0165542,0.0000000,0.0000000,0.0009895,0.0000000,0.0000000,0.0000000,0.0165542,0.0000000,0.0000000,0.0009895,0.0000000,0.0000000,0.0000000,0.0165542,0.0000000,0.0000000,0.0009895
32.1561020,1.0000501,,-0.9839460,-0.1784543,-0.0002211,0.0020469,0.0058391,0.0005974,-0.0002313,,,,2.2846487,-12.5710411,-31.0755386,0.0000000,0.0000000,0.0000000,0.0200010,0.3426640,0.0000000,0.0000000,0.0165740,0.0000000,0.0000000,0.0000000,0.3426640,0.0000000,0.0000000,0.0165740,0.0000000,0.0000000,0.0000000,0.3426640,0.0000000,0.0000000,0.0165740,0.0165740,0.0000000,0.0000000,0.0009895,0.0000000,0.0000000,0.0000000,0.0165740,0.0000000,0.0000000,0.0009895,0.0000000,0.0000000,0.0000000,0.0165740,0.0000000,0.0000000,0.0009895
32.1718020,,1.0000800,-0.9839460,-0.1784543,-0.0002211,0.0019859,,,,-0.0181814,0.0014886,0.0000115,2.2844036,-12.5710211,-31.0755386,-0.0000119,0.0000010,0.0000000,0.1000080,0.3380442,0.0000000,0.0000000,0.0163505,0.0000000,0.0000000,0.0000000,0.3380442,0.0000000,0.0000000,0.0163505,0.0000000,0.0000000,0.0000000,0.3380442,0.0000000,0.0000000,0.0163505,0.0163505,0.0000000,0.0000000,0.0009787,0.0000000,0.0000000,0.0000000,0.0163505,0.0000000,0.0000000,0.0009787,0.0000000,0.0000000,0.0000000,0.0163505,0.0000000,0.0000000,0.0009787
32.1855060,1.0005500,,-0.9839454,-0.1784587,-0.0001939,0.0019859,0.0055898,0.0058300,-0.0037778,,,,2.2844036,-12.5710211,-31.0755386,0.0000000,0.0000000,0.0000000,0.0200110,0.3386986,0.0000000,0.0000000,0.0163701,0.0000000,0.0000000,0.0000000,0.3386986,0.0000000,0.0000000,0.0163701,0.0000000,0.0000000,0.0000000,0.3386986,0.0000000,0.0000000,0.0163701,0.0163701,0.0000000,0.0000000,0.0009787,0.0000000,0.0000000,0.0000000,0.0163701,0.0000000,0.0000000,0.0009787,0.0000000,0.0000000,0.0000000,0.0163701,0.0000000,0.0000000,0.0009787
32.1986660,1.1989501,,-0.9839425,-0.1784746,-0.0001766,0.0019736,0.0003382,-0.0022577,-0.0077483,,,,2.2844036,-12.5710211,-31.0755386,0.0000000,0.0000000,0.0000000,0.0239790,0.3394837,0.0000000,0.0000000,0.0163936,0.0000000,0.0000000,0.0000000,0.3394837,0.0000000,0.0000000,0.0163936,0.0000000,0.0000000,0.0000000,0.3394837,0.0000000,0.0000000,0.0163936,0.0163936,0.0000000,0.0000000,0.0009787,0.0000000,0.0000000,0.0000000,0.0163936,0.0000000,0.0000000,0.0009787,0.0000000,0.0000000,0.0000000,0.0163936,0.0000000,0.0000000,0.0009787
32.2199620,1.0502001,,-0.9839475,-0.1784469,-0.0001816,0.0020235,-0.0084368,-0.0213315,-0.0019210,,,,2.2844036,-12.5710211,-31.0755386,0.0000000,0.0000000,0.0000000,0.0210040,0.3401724,0.0000000,0.0000000,0.0164141,0.0000000,0.0000000,0.0000000,0.3401724,0.0000000,0.0000000,0.0164141,0.0000000,0.0000000,0.0000000,0.3401724,0.0000000,0.0000000,0.0164141,0.0164141,0.0000000,0.0000000,0.0009787,0.0000000,0.0000000,0.0000000,0.0164141,0.0000000,0.0000000,0.0009787,0.0000000,0.0000000,0.0000000,0.0164141,0.0000000,0.0000000,0.0009787
32.2398790,1.0002999,,-0.9839433,-0.1784698,-0.0001776,0.0019815,-0.0088800,-0.0202559,-0.0012046,,,,2.2844036,-12.5710211,-31.0755386,0.0000000,0.0000000,0.0000000,0.0200060,0.3408291,0.0000000,0.0000000,0.0164337,0.0000000,0.0000000,0.0000000,0.3408291,0.0000000,0.0000000,0.0164337,0.0000000,0.0000000,0.0000000,0.3408291,0.0000000,0.0000000,0.0164337,0.0164337,0.0000000,0.0000000,0.0009787,0.0000000,0.0000000,0.0000000,0.0164337,0.0000000,0.0000000,0.0009787,0.0000000,0.0000000,0.0000000,0.0164337,0.0000000,0.0000000,0.0009787
32.2594640,,0.9999100,-0.9839440,-0.1784663,-0.0002110,0.0019692,,,,-0.0294965,-0.0108981,-0.0000326,2.2840080,-12.5711670,-31.0755386,-0.0000191,-0.0000070,-0.0000000,0.0999910,0.3362583,0.0000000,0.0000000,0.0162133,0.0000000,0.0000000,0.0000000,0.3362583,0.0000000,0.0000000,0.0162133,0.0000000,0.0000000,0.0000000,0.3362583,0.0000000,0.0000000,0.0162133,0.0162133,0.0000000,0.0000000,0.0009681,0.0000000,0.0000000,0.0000000,0.0162133,0.0000000,0.0000000,0.0009681,0.0000000,0.0000000,0.0000000,0.0162133,0.0000000,0.0000000,0.0009681
32.2720330,1.0001000,,-0.9839440,-0.1784663,-0.0002110,0.0019692,0.0013202,0.0061608,-0.0111004,,,,2.2840080,-12.5711670,-31.0755386,0.0000000,0.0000000,0.0000000,0.0200020,0.3369069,0.0000000,0.0000000,0.0162327,0.0000000,0.0000000,0.0000000,0.3369069,0.0000000,0.0000000,0.0162327,0.0000000,0.0000000,0.0000000,0.3369069,0.0000000,0.0000000,0.0162327,0.0162327,0.0000000,0.0000000,0.0009681,0.0000000,0.0000000,0.0000000,0.0162327,0.0000000,0.0000000,0.0009681,0.0000000,0.0000000,0.0000000,0.0162327,0.0000000,0.0000000,0.0009681
32.2881810,1.3494000,,-0.9839443,-0.1784645,-0.0002240,0.0019883,0.0039789,-0.0130481,-0.0038412,,,,2.2840080,-12.5711670,-31.0755386,0.0000000,0.0000000,0.0000000,0.0269880,0.3377831,0.0000000,0.0000000,0.0162588,0.0000000,0.0000000,0.0000000,0.3377831,0.0000000,0.0000000,0.0162588,0.0000000,0.0000000,0.0000000,0.3377831,0.0000000,0.0000000,0.0162588,0.0162588,0.0000000,0.0000000,0.0009681,0.0000000,0.0000000,0.0000000,0.0162588,0.0000000,0.0000000,0.0009681,0.0000000,0.0000000,0.0000000,0.0162588,0.0000000,0.0000000,0.0009681
32.3081840,1.0000501,,-0.9839417,-0.1784785,-0.0001717,0.0020447,-0.0060672,-0.0015421,-0.0031413,,,,2.2840080,-12.5711670,-31.0755386,0.0000000,0.0000000,0.0000000,0.0200010,0.3384335,0.0000000,0.0000000,0.0162782,0.0000000,0.0000000,0.0000000,0.3384335,0.0000000,0.0000000,0.0162782,0.0000000,0.0000000,0.0000000,0.3384335,0.0000000,0.0000000,0.0162782,0.0162782,0.0000000,0.0000000,0.0009681,0.0000000,0.0000000,0.0000000,0.0162782,0.0000000,0.0000000,0.0009681,0.0000000,0.0000000,0.0000000,0.0162782,0.0000000,0.0000000,0.0009681
32.3269190,1.0000000,,-0.9839458,-0.1784555,-0.0002048,0.0020635,0.0017348,-0.0031590,0.0111247,,,,2.2840080,-12.5711670,-31.0755386,0.0000000,0.0000000,0.0000000,0.0200000,0.3390846,0.0000000,0.0000000,0.0162975,0.0000000,0.0000000,0.0000000,0.3390846,0.0000000,0.0000000,0.0162975,0.0000000,0.0000000,0.0000000,0.3390846,0.0000000,0.0000000,0.0162975,0.0162975,0.0000000,0.0000000,0.0009681,0.0000000,0.0000000,0.0000000,0.0162975,0.0000000,0.0000000,0.0009681,0.0000000,0.0000000,0.0000000,0.0162975,0.0000000,0.0000000,0.0009681
32.3466040,1.0000501,,-0.9839423,-0.1784748,-0.0002072,0.0020551,0.0034766,-0.0005724,0.0089803,,,,2.2840080,-12.5711670,-31.0755386,0.0000000,0.0000000,0.0000000,0.0200010,0.3397365,0.0000000,0.0000000,0.0163169,0.0000000,0.0000000,0.0000000,0.3397365,0.0000000,0.0000000,0.0163169,0.0000000,0.0000000,0.0000000,0.3397365,0.0000000,0.0000000,0.0163169,0.0163169,0.0000000,0.0000000,0.0009681,0.0000000,0.0000000,0.0000000,0.0163169,0.0000000,0.0000000,0.0009681,0.0000000,0.0000000,0.0000000,0.0163169,0.0000000,0.0000000,0.0009681
32.3634980,,1.0000900,-0.9839423,-0.1784748,-0.0002072,0.0020551,,,,-0.0124243,-0.0129652,-0.0000493,2.2838418,-12.5713406,-31.0755386,-0.0000080,-0.0000083,-0.0000000,0.1000090,0.3351948,0.0000000,0.0000000,0.0160988,0.0000000,0.0000000,0.0000000,0.3351948,0.0000000,0.0000000,0.0160988,0.0000000,0.0000000,0.0000000,0.3351948,0.0000000,0.0000000,0.0160988,0.0160988,0.0000000,0.0000000,0.0009576,0.0000000,0.0000000,0.0000000,0.0160988,0.0000000,0.0000000,0.0009576,0.0000000,0.0000000,0.0000000,0.0160988,0.0000000,0.0000000,0.0009576
32.3765960,1.1002001,,-0.9839406,-0.1784845,-0.0002004,0.0020403,-0.0024731,0.0099753,0.0010722,,,,2.2838418,-12.5713406,-31.0755386,0.0000000,0.0000000,0.0000000,0.0220040,0.3359033,0.0000000,0.0000000,0.0161199,0.0000000,0.0000000,0.0000000,0.3359033,0.0000000,0.0000000,0.0161199,0.0000000,0.0000000,0.0000000,0.3359033,0.0000000,0.0000000,0.0161199,0.0161198,0.0000000,0.0000000,0.0009576,0.0000000,0.0000000,0.0000000,0.0161198,0.0000000,0.0000000,0.0009576,0.0000000,0.0000000,0.0000000,0.0161198,0.0000000,0.0000000,0.0009576
32.3898650,1.0497501,,-0.9839367,-0.1785064,-0.0001503,0.0020145,0.0014871,0.0037593,0.0002919,,,,2.2838418,-12.5713406,-31.0755386,0.0000000,0.0000000,0.0000000,0.0209950,0.3365802,0.0000000,0.0000000,0.0161400,0.0000000,0.0000000,0.0000000,0.3365802,0.0000000,0.0000000,0.0161400,0.0000000,0.0000000,0.0000000,0.3365802,0.0000000,0.0000000,0.0161400,0.0161400,0.0000000,0.0000000,0.0009576,0.0000000,0.0000000,0.0000000,0.0161400,0.0000000,0.0000000,0.0009576,0.0000000,0.0000000,0.0000000,0.0161400,0.0000000,0.0000000,0.0009576
32.4108230,1.0502501,,-0.9839300,-0.1785438,-0.0001293,0.0019714,0.0024907,0.0189008,-0.0120611,,,,2.2838418,-12.5713406,-31.0755386,0.0000000,0.0000000,0.0000000,0.0210050,0.3372582,0.0000000,0.0000000,0.0161601,0.0000000,0.0000000,0.0000000,0.3372582,0.0000000,0.0000000,0.0161601,0.0000000,0.0000000,0.0000000,0.3372582,0.0000000,0.0000000,0.0161601,0.0161601,0.0000000,0.0000000,0.0009576,0.0000000,0.0000000,0.0000000,0.0161601,0.0000000,0.0000000,0.0009576,0.0000000,0.0000000,0.0000000,0.0161601,0.0000000,0.0000000,0.0009576
32.4320580,1.0001000,,-0.9839307,-0.1785394,-0.0000997,0.0020201,0.0081347,0.0056205,-0.0050540,,,,2.2838418,-12.5713406,-31.0755386,0.0000000,0.0000000,0.0000000,0.0200020,0.3379047,0.0000000,0.0000000,0.0161792,0.0000000,0.0000000,0.0000000,0.3379047,0.0000000,0.0000000,0.0161792,0.0000000,0.0000000,0.0000000,0.3379047,0.0000000,0.0000000,0.0161792,0.0161792,0.0000000,0.0000000,0.0009576,0.0000000,0.0000000,0.0000000,0.0161792,0.0000000,0.0000000,0.0009576,0.0000000,0.0000000,0.0000000,0.0161792,0.0000000,0.0000000,0.0009576
32.4509860,1.0000501,,-0.9839311,-0.1785372,-0.0000768,0.0020178,-0.0022040,0.0128429,-0.0027711,,,,2.2838418,-12.5713406,-31.0755386,0.0000000,0.0000000,0.0000000,0.0200010,0.3385518,0.0000000,0.0000000,0.0161984,0.0000000,0.0000000,0.0000000,0.3385518,0.0000000,0.0000000,0.0161984,0.0000000,0.0000000,0.0000000,0.3385518,0.0000000,0.0000000,0.0161984,0.0161984,0.0000000,0.0000000,0.0009577,0.0000000,0.0000000,0.0000000,0.0161984,0.0000000,0.0000000,0.0009577,0.0000000,0.0000000,0.0000000,0.0161984,0.0000000,0.0000000,0.0009577
32.4678880,,1.0000100,-0.9839311,-0.1785372,-0.0000768,0.0021339,,,,-0.0730769,-0.0275889,-0.0000687,2.2828684,-12.5717077,-31.0755386,-0.0000466,-0.0000176,-0.0000000,0.1000010,0.3340415,0.0000000,0.0000000,0.0159826,0.0000000,0.0000000,0.0000000,0.3340415,0.0000000,0.0000000,0.0159826,0.0000000,0.0000000,0.0000000,0.3340415,0.0000000,0.0000000,0.0159826,0.0159826,0.0000000,0.0000000,0.0009473,0.0000000,0.0000000,0.0000000,0.0159826,0.0000000,0.0000000,0.0009473,0.0000000,0.0000000,0.0000000,0.0159826,0.0000000,0.0000000,0.0009473
32.4819190,0.9998500,,-0.9839314,-0.1785337,-0.0000731,0.0021339,0.0062451,0.0027670,-0.0106629,,,,2.2828684,-12.5717077,-31.0755386,0.0000000,0.0000000,0.0000000,0.0199970,0.3346807,0.0000000,0.0000000,0.0160015,0.0000000,0.0000000,0.0000000,0.3346807,0.0000000,0.0000000,0.0160015,0.0000000,0.0000000,0.0000000,0.3346807,0.0000000,0.0000000,0.0160015,0.0160015,0.0000000,0.0000000,0.0009473,0.0000000,0.0000000,0.0000000,0.0160015,0.0000000,0.0000000,0.0009473,0.0000000,0.0000000,0.0000000,0.0160015,0.0000000,0.0000000,0.0009473
