t,predict_cpu,update_cpu,quat_x,quat_y,quat_z,quat_w,accel_x,accel_y,accel_z,of_x,of_y,of_z,x_x,x_y,x_z,x_vx,x_vy,x_vz,dt,P_0,P_1,P_2,P_3,P_4,P_5,P_6,P_7,P_8,P_9,P_10,P_11,P_12,P_13,P_14,P_15,P_16,P_17,P_18,P_19,P_20,P_21,P_22,P_23,P_24,P_25,P_26,P_27,P_28,P_29,P_30,P_31,P_32,P_33,P_34,P_35
16.3397140,1.0000000,,-0.9473522,-0.3200546,0.0001589,0.0094234,-0.0046057,0.0174147,-0.0003596,,,,3.3230560,-9.8629770,-24.5297356,0.0000000,0.0000000,0.0000000,0.0200000,0.9419068,0.0000000,0.0000000,0.1177344,0.0000000,0.0000000,0.0000000,0.9419068,0.0000000,0.0000000,0.1177344,0.0000000,0.0000000,0.0000000,0.9419068,0.0000000,0.0000000,0.1177344,0.1177344,0.0000000,0.0000000,0.0169195,0.0000000,0.0000000,0.0000000,0.1177344,0.0000000,0.0000000,0.0169195,0.0000000,0.0000000,0.0000000,0.1177344,0.0000000,0.0000000,0.0169195
16.3526900,1.1499000,,-0.9473534,-0.3200551,0.0001446,0.0092912,-0.0046222,0.0152305,-0.0068479,,,,3.3230560,-9.8629770,-24.5297356,0.0000000,0.0000000,0.0000000,0.0229980,0.9473221,0.0000000,0.0000000,0.1181235,0.0000000,0.0000000,0.0000000,0.9473221,0.0000000,0.0000000,0.1181235,0.0000000,0.0000000,0.0000000,0.9473221,0.0000000,0.0000000,0.1181235,0.1181235,0.0000000,0.0000000,0.0169195,0.0000000,0.0000000,0.0000000,0.1181235,0.0000000,0.0000000,0.0169195,0.0000000,0.0000000,0.0000000,0.1181235,0.0000000,0.0000000,0.0169195
16.3740120,1.0502501,,-0.9473543,-0.3200554,0.0001398,0.0091885,-0.0124124,0.0150463,-0.0054534,,,,3.3230560,-9.8629770,-24.5297356,0.0000000,0.0000000,0.0000000,0.0210050,0.9522845,0.0000000,0.0000000,0.1184789,0.0000000,0.0000000,0.0000000,0.9522845,0.0000000,0.0000000,0.1184789,0.0000000,0.0000000,0.0000000,0.9522845,0.0000000,0.0000000,0.1184789,0.1184789,0.0000000,0.0000000,0.0169196,0.0000000,0.0000000,0.0000000,0.1184789,0.0000000,0.0000000,0.0169196,0.0000000,0.0000000,0.0000000,0.1184789,0.0000000,0.0000000,0.0169196
16.3939150,1.0001000,,-0.9473552,-0.3200559,0.0001210,0.0090727,-0.0050694,0.0206838,0.0008591,,,,3.3230560,-9.8629770,-24.5297356,0.0000000,0.0000000,0.0000000,0.0200020,0.9570242,0.0000000,0.0000000,0.1188173,0.0000000,0.0000000,0.0000000,0.9570242,0.0000000,0.0000000,0.1188173,0.0000000,0.0000000,0.0000000,0.9570242,0.0000000,0.0000000,0.1188173,0.1188174,0.0000000,0.0000000,0.0169196,0.0000000,0.0000000,0.0000000,0.1188174,0.0000000,0.0000000,0.0169196,0.0000000,0.0000000,0.0000000,0.1188174,0.0000000,0.0000000,0.0169196
16.4139840,1.0000501,,-0.9473561,-0.3200563,0.0001152,0.0089611,-0.0003756,0.0199855,0.0064568,,,,3.3230560,-9.8629770,-24.5297356,0.0000000,0.0000000,0.0000000,0.0200010,0.9617771,0.0000000,0.0000000,0.1191557,0.0000000,0.0000000,0.0000000,0.9617771,0.0000000,0.0000000,0.1191557,0.0000000,0.0000000,0.0000000,0.9617771,0.0000000,0.0000000,0.1191557,0.1191558,0.0000000,0.0000000,0.0169196,0.0000000,0.0000000,0.0000000,0.1191558,0.0000000,0.0000000,0.0169196,0.0000000,0.0000000,0.0000000,0.1191558,0.0000000,0.0000000,0.0169196
16.4297020,,1.0199599,-0.9473561,-0.3200563,0.0001152,0.0089611,,,,0.0000000,0.0000000,0.0000000,3.3230560,-9.8629770,-24.5297356,0.0000000,0.0000000,0.0000000,0.1019960,0.9297009,0.0000000,0.0000000,0.1151818,0.0000000,0.0000000,0.0000000,0.9297009,0.0000000,0.0000000,0.1151818,0.0000000,0.0000000,0.0000000,0.9297009,0.0000000,0.0000000,0.1151818,0.1151818,0.0000000,0.0000000,0.0164272,0.0000000,0.0000000,0.0000000,0.1151818,0.0000000,0.0000000,0.0164272,0.0000000,0.0000000,0.0000000,0.1151818,0.0000000,0.0000000,0.0164272
16.4434810,1.0001501,,-0.9473572,-0.3200565,0.0001250,0.0088357,-0.0043077,0.0180494,0.0021832,,,,3.3230560,-9.8629770,-24.5297356,0.0000000,0.0000000,0.0000000,0.0200030,0.9343088,0.0000000,0.0000000,0.1155104,0.0000000,0.0000000,0.0000000,0.9343088,0.0000000,0.0000000,0.1155104,0.0000000,0.0000000,0.0000000,0.9343088,0.0000000,0.0000000,0.1155104,0.1155104,0.0000000,0.0000000,0.0164272,0.0000000,0.0000000,0.0000000,0.1155104,0.0000000,0.0000000,0.0164272,0.0000000,0.0000000,0.0000000,0.1155104,0.0000000,0.0000000,0.0164272
16.4566070,1.1494499,,-0.9473581,-0.3200567,0.0001370,0.0087311,-0.0023293,0.0145636,0.0034643,,,,3.3230560,-9.8629770,-24.5297356,0.0000000,0.0000000,0.0000000,0.0229890,0.9396198,0.0000000,0.0000000,0.1158880,0.0000000,0.0000000,0.0000000,0.9396198,0.0000000,0.0000000,0.1158880,0.0000000,0.0000000,0.0000000,0.9396198,0.0000000,0.0000000,0.1158880,0.1158880,0.0000000,0.0000000,0.0164272,0.0000000,0.0000000,0.0000000,0.1158880,0.0000000,0.0000000,0.0164272,0.0000000,0.0000000,0.0000000,0.1158880,0.0000000,0.0000000,0.0164272
16.4779980,1.0508500,,-0.9473590,-0.3200569,0.0001445,0.0086346,-0.0020420,0.0178638,0.0121615,,,,3.3230560,-9.8629770,-24.5297356,0.0000000,0.0000000,0.0000000,0.0210170,0.9444910,0.0000000,0.0000000,0.1162333,0.0000000,0.0000000,0.0000000,0.9444910,0.0000000,0.0000000,0.1162333,0.0000000,0.0000000,0.0000000,0.9444910,0.0000000,0.0000000,0.1162333,0.1162333,0.0000000,0.0000000,0.0164272,0.0000000,0.0000000,0.0000000,0.1162333,0.0000000,0.0000000,0.0164272,0.0000000,0.0000000,0.0000000,0.1162333,0.0000000,0.0000000,0.0164272
16.4979050,0.9991500,,-0.9473598,-0.3200571,0.0001576,0.0085319,-0.0003801,0.0157526,0.0057680,,,,3.3230560,-9.8629770,-24.5297356,0.0000000,0.0000000,0.0000000,0.0199830,0.9491364,0.0000000,0.0000000,0.1165615,0.0000000,0.0000000,0.0000000,0.9491364,0.0000000,0.0000000,0.1165615,0.0000000,0.0000000,0.0000000,0.9491364,0.0000000,0.0000000,0.1165615,0.1165616,0.0000000,0.0000000,0.0164272,0.0000000,0.0000000,0.0000000,0.1165616,0.0000000,0.0000000,0.0164272,0.0000000,0.0000000,0.0000000,0.1165616,0.0000000,0.0000000,0.0164272
16.5178410,1.0007000,,-0.9473606,-0.3200575,0.0001461,0.0084328,-0.0015023,0.0124005,0.0072099,,,,3.3230560,-9.8629770,-24.5297356,0.0000000,0.0000000,0.0000000,0.0200140,0.9538022,0.0000000,0.0000000,0.1168903,0.0000000,0.0000000,0.0000000,0.9538022,0.0000000,0.0000000,0.1168903,0.0000000,0.0000000,0.0000000,0.9538022,0.0000000,0.0000000,0.1168903,0.1168903,0.0000000,0.0000000,0.0164272,0.0000000,0.0000000,0.0000000,0.1168903,0.0000000,0.0000000,0.0164272,0.0000000,0.0000000,0.0000000,0.1168903,0.0000000,0.0000000,0.0164272
16.5341530,,1.0200499,-0.9473606,-0.3200575,0.0001461,0.0084328,,,,0.0000000,0.0000000,0.0000000,3.3230560,-9.8629770,-24.5297356,0.0000000,0.0000000,0.0000000,0.1020050,0.9222469,0.0000000,0.0000000,0.1130232,0.0000000,0.0000000,0.0000000,0.9222469,0.0000000,0.0000000,0.1130232,0.0000000,0.0000000,0.0000000,0.9222469,0.0000000,0.0000000,0.1130232,0.1130232,0.0000000,0.0000000,0.0159533,0.0000000,0.0000000,0.0000000,0.1130232,0.0000000,0.0000000,0.0159533,0.0000000,0.0000000,0.0000000,0.1130232,0.0000000,0.0000000,0.0159533
16.5486460,1.0994999,,-0.9473612,-0.3200577,0.0001340,0.0083508,-0.0020558,0.0135855,0.0032997,,,,3.3230560,-9.8629770,-24.5297356,0.0000000,0.0000000,0.0000000,0.0219900,0.9272177,0.0000000,0.0000000,0.1133740,0.0000000,0.0000000,0.0000000,0.9272177,0.0000000,0.0000000,0.1133740,0.0000000,0.0000000,0.0000000,0.9272177,0.0000000,0.0000000,0.1133740,0.1133740,0.0000000,0.0000000,0.0159533,0.0000000,0.0000000,0.0000000,0.1133740,0.0000000,0.0000000,0.0159533,0.0000000,0.0000000,0.0000000,0.1133740,0.0000000,0.0000000,0.0159533
16.5621560,1.0998001,,-0.9473620,-0.3200582,0.0001144,0.0082470,0.0003683,0.0169856,0.0040302,,,,3.3230560,-9.8629770,-24.5297356,0.0000000,0.0000000,0.0000000,0.0219960,0.9322052,0.0000000,0.0000000,0.1137249,0.0000000,0.0000000,0.0000000,0.9322052,0.0000000,0.0000000,0.1137249,0.0000000,0.0000000,0.0000000,0.9322052,0.0000000,0.0000000,0.1137249,0.1137249,0.0000000,0.0000000,0.0159533,0.0000000,0.0000000,0.0000000,0.1137249,0.0000000,0.0000000,0.0159533,0.0000000,0.0000000,0.0000000,0.1137249,0.0000000,0.0000000,0.0159533
16.5816870,1.0000000,,-0.9473627,-0.3200585,0.0000979,0.0081591,-0.0045156,0.0115293,0.0014658,,,,3.3230560,-9.8629770,-24.5297356,0.0000000,0.0000000,0.0000000,0.0200000,0.9367542,0.0000000,0.0000000,0.1140439,0.0000000,0.0000000,0.0000000,0.9367542,0.0000000,0.0000000,0.1140439,0.0000000,0.0000000,0.0000000,0.9367542,0.0000000,0.0000000,0.1140439,0.1140440,0.0000000,0.0000000,0.0159533,0.0000000,0.0000000,0.0000000,0.1140440,0.0000000,0.0000000,0.0159533,0.0000000,0.0000000,0.0000000,0.1140440,0.0000000,0.0000000,0.0159533
16.6020660,1.0001501,,-0.9473634,-0.3200586,0.0001188,0.0080681,-0.0071177,0.0075118,0.0018926,,,,3.3230560,-9.8629770,-24.5297356,0.0000000,0.0000000,0.0000000,0.0200030,0.9413166,0.0000000,0.0000000,0.1143631,0.0000000,0.0000000,0.0000000,0.9413166,0.0000000,0.0000000,0.1143631,0.0000000,0.0000000,0.0000000,0.9413166,0.0000000,0.0000000,0.1143631,0.1143631,0.0000000,0.0000000,0.0159533,0.0000000,0.0000000,0.0000000,0.1143631,0.0000000,0.0000000,0.0159533,0.0000000,0.0000000,0.0000000,0.1143631,0.0000000,0.0000000,0.0159533
16.6219830,0.9998500,,-0.9473640,-0.3200586,0.0001397,0.0079909,-0.0039861,0.0103324,-0.0000913,,,,3.3230560,-9.8629770,-24.5297356,0.0000000,0.0000000,0.0000000,0.0199970,0.9458904,0.0000000,0.0000000,0.1146821,0.0000000,0.0000000,0.0000000,0.9458904,0.0000000,0.0000000,0.1146821,0.0000000,0.0000000,0.0000000,0.9458904,0.0000000,0.0000000,0.1146821,0.1146821,0.0000000,0.0000000,0.0159533,0.0000000,0.0000000,0.0000000,0.1146821,0.0000000,0.0000000,0.0159533,0.0000000,0.0000000,0.0000000,0.1146821,0.0000000,0.0000000,0.0159533
16.6378720,,1.0000401,-0.9473640,-0.3200586,0.0001397,0.0079909,,,,0.0000000,0.0000000,0.0000000,3.3230560,-9.8629770,-24.5297356,0.0000000,0.0000000,0.0000000,0.1000040,0.9148480,0.0000000,0.0000000,0.1109184,0.0000000,0.0000000,0.0000000,0.9148480,0.0000000,0.0000000,0.1109184,0.0000000,0.0000000,0.0000000,0.9148480,0.0000000,0.0000000,0.1109184,0.1109184,0.0000000,0.0000000,0.0154970,0.0000000,0.0000000,0.0000000,0.1109184,0.0000000,0.0000000,0.0154970,0.0000000,0.0000000,0.0000000,0.1109184,0.0000000,0.0000000,0.0154970
16.6515960,1.0000501,,-0.9473648,-0.3200588,0.0001404,0.0078900,0.0012647,0.0089351,0.0023423,,,,3.3230560,-9.8629770,-24.5297356,0.0000000,0.0000000,0.0000000,0.0200010,0.9192850,0.0000000,0.0000000,0.1112284,0.0000000,0.0000000,0.0000000,0.9192850,0.0000000,0.0000000,0.1112284,0.0000000,0.0000000,0.0000000,0.9192850,0.0000000,0.0000000,0.1112284,0.1112284,0.0000000,0.0000000,0.0154970,0.0000000,0.0000000,0.0000000,0.1112284,0.0000000,0.0000000,0.0154970,0.0000000,0.0000000,0.0000000,0.1112284,0.0000000,0.0000000,0.0154970
16.6647330,1.1504000,,-0.9473655,-0.3200590,0.0001469,0.0078035,-0.0024194,0.0101209,0.0035592,,,,3.3230560,-9.8629770,-24.5297356,0.0000000,0.0000000,0.0000000,0.0230080,0.9244033,0.0000000,0.0000000,0.1115849,0.0000000,0.0000000,0.0000000,0.9244033,0.0000000,0.0000000,0.1115849,0.0000000,0.0000000,0.0000000,0.9244033,0.0000000,0.0000000,0.1115849,0.1115849,0.0000000,0.0000000,0.0154970,0.0000000,0.0000000,0.0000000,0.1115849,0.0000000,0.0000000,0.0154970,0.0000000,0.0000000,0.0000000,0.1115849,0.0000000,0.0000000,0.0154970
16.6848200,0.9997500,,-0.9473662,-0.3200593,0.0001419,0.0077051,-0.0057110,0.0142692,0.0000172,,,,3.3230560,-9.8629770,-24.5297356,0.0000000,0.0000000,0.0000000,0.0199950,0.9288656,0.0000000,0.0000000,0.1118948,0.0000000,0.0000000,0.0000000,0.9288656,0.0000000,0.0000000,0.1118948,0.0000000,0.0000000,0.0000000,0.9288656,0.0000000,0.0000000,0.1118948,0.1118948,0.0000000,0.0000000,0.0154970,0.0000000,0.0000000,0.0000000,0.1118948,0.0000000,0.0000000,0.0154970,0.0000000,0.0000000,0.0000000,0.1118948,0.0000000,0.0000000,0.0154970
16.7047590,1.0000501,,-0.9473669,-0.3200593,0.0001687,0.0076147,-0.0109351,0.0074932,0.0016642,,,,3.3230560,-9.8629770,-24.5297356,0.0000000,0.0000000,0.0000000,0.0200010,0.9333416,0.0000000,0.0000000,0.1122048,0.0000000,0.0000000,0.0000000,0.9333416,0.0000000,0.0000000,0.1122048,0.0000000,0.0000000,0.0000000,0.9333416,0.0000000,0.0000000,0.1122048,0.1122048,0.0000000,0.0000000,0.0154970,0.0000000,0.0000000,0.0000000,0.1122048,0.0000000,0.0000000,0.0154970,0.0000000,0.0000000,0.0000000,0.1122048,0.0000000,0.0000000,0.0154970
16.7278960,,1.0099300,-0.9473676,-0.3200595,0.0001716,0.0075175,,,,0.0000000,0.0000000,0.0000000,3.3230560,-9.8629770,-24.5297356,0.0000000,0.0000000,0.0000000,0.1009930,0.9031042,0.0000000,0.0000000,0.1085697,0.0000000,0.0000000,0.0000000,0.9031042,0.0000000,0.0000000,0.1085697,0.0000000,0.0000000,0.0000000,0.9031042,0.0000000,0.0000000,0.1085697,0.1085697,0.0000000,0.0000000,0.0150600,0.0000000,0.0000000,0.0000000,0.1085697,0.0000000,0.0000000,0.0150600,0.0000000,0.0000000,0.0000000,0.1085697,0.0000000,0.0000000,0.0150600
16.7415400,1.0999500,,-0.9473676,-0.3200595,0.0001716,0.0075175,-0.0084048,0.0025335,0.0007787,,,,3.3230560,-9.8629770,-24.5297356,0.0000000,0.0000000,0.0000000,0.0219990,0.9078811,0.0000000,0.0000000,0.1089010,0.0000000,0.0000000,0.0000000,0.9078811,0.0000000,0.0000000,0.1089010,0.0000000,0.0000000,0.0000000,0.9078811,0.0000000,0.0000000,0.1089010,0.1089010,0.0000000,0.0000000,0.0150600,0.0000000,0.0000000,0.0000000,0.1089010,0.0000000,0.0000000,0.0150600,0.0000000,0.0000000,0.0000000,0.1089010,0.0000000,0.0000000,0.0150600
16.7547960,1.3998500,,-0.9473684,-0.3200598,0.0001690,0.0073970,-0.0105196,0.0148089,-0.0020978,,,,3.3230560,-9.8629770,-24.5297356,0.0000000,0.0000000,0.0000000,0.0279970,0.9139789,0.0000000,0.0000000,0.1093226,0.0000000,0.0000000,0.0000000,0.9139789,0.0000000,0.0000000,0.1093226,0.0000000,0.0000000,0.0000000,0.9139789,0.0000000,0.0000000,0.1093226,0.1093226,0.0000000,0.0000000,0.0150600,0.0000000,0.0000000,0.0000000,0.1093226,0.0000000,0.0000000,0.0150600,0.0000000,0.0000000,0.0000000,0.1093226,0.0000000,0.0000000,0.0150600
16.7761130,1.0501001,,-0.9473693,-0.3200599,0.0001837,0.0072820,-0.0083421,0.0123102,0.0025674,,,,3.3230560,-9.8629770,-24.5297356,0.0000000,0.0000000,0.0000000,0.0210020,0.9185709,0.0000000,0.0000000,0.1096389,0.0000000,0.0000000,0.0000000,0.9185709,0.0000000,0.0000000,0.1096389,0.0000000,0.0000000,0.0000000,0.9185709,0.0000000,0.0000000,0.1096389,0.1096389,0.0000000,0.0000000,0.0150600,0.0000000,0.0000000,0.0000000,0.1096389,0.0000000,0.0000000,0.0150600,0.0000000,0.0000000,0.0000000,0.1096389,0.0000000,0.0000000,0.0150600
16.7960050,1.0002999,,-0.9473699,-0.3200601,0.0001857,0.0071838,0.0018028,0.0158597,0.0014821,,,,3.3230560,-9.8629770,-24.5297356,0.0000000,0.0000000,0.0000000,0.0200060,0.9229577,0.0000000,0.0000000,0.1099402,0.0000000,0.0000000,0.0000000,0.9229577,0.0000000,0.0000000,0.1099402,0.0000000,0.0000000,0.0000000,0.9229577,0.0000000,0.0000000,0.1099402,0.1099402,0.0000000,0.0000000,0.0150600,0.0000000,0.0000000,0.0000000,0.1099402,0.0000000,0.0000000,0.0150600,0.0000000,0.0000000,0.0000000,0.1099402,0.0000000,0.0000000,0.0150600
16.8161030,1.0000000,,-0.9473706,-0.3200603,0.0001914,0.0070935,-0.0043247,0.0199995,-0.0015020,,,,3.3230560,-9.8629770,-24.5297356,0.0000000,0.0000000,0.0000000,0.0200000,0.9273553,0.0000000,0.0000000,0.1102414,0.0000000,0.0000000,0.0000000,0.9273553,0.0000000,0.0000000,0.1102414,0.0000000,0.0000000,0.0000000,0.9273553,0.0000000,0.0000000,0.1102414,0.1102414,0.0000000,0.0000000,0.0150600,0.0000000,0.0000000,0.0000000,0.1102414,0.0000000,0.0000000,0.0150600,0.0000000,0.0000000,0.0000000,0.1102414,0.0000000,0.0000000,0.0150600
16.8307820,,1.0001000,-0.9473706,-0.3200603,0.0001914,0.0070935,,,,0.0000000,0.0000000,0.0000000,3.3230560,-9.8629770,-24.5297356,0.0000000,0.0000000,0.0000000,0.1000100,0.8974984,0.0000000,0.0000000,0.1066921,0.0000000,0.0000000,0.0000000,0.8974984,0.0000000,0.0000000,0.1066921,0.0000000,0.0000000,0.0000000,0.8974984,0.0000000,0.0000000,0.1066921,0.1066921,0.0000000,0.0000000,0.0146381,0.0000000,0.0000000,0.0000000,0.1066921,0.0000000,0.0000000,0.0146381,0.0000000,0.0000000,0.0000000,0.1066921,0.0000000,0.0000000,0.0146381
16.8442760,1.0001501,,-0.9473711,-0.3200604,0.0001998,0.0070190,-0.0032076,0.0105491,0.0053067,,,,3.3230560,-9.8629770,-24.5297356,0.0000000,0.0000000,0.0000000,0.0200030,0.9017667,0.0000000,0.0000000,0.1069849,0.0000000,0.0000000,0.0000000,0.9017667,0.0000000,0.0000000,0.1069849,0.0000000,0.0000000,0.0000000,0.9017667,0.0000000,0.0000000,0.1069849,0.1069849,0.0000000,0.0000000,0.0146381,0.0000000,0.0000000,0.0000000,0.1069849,0.0000000,0.0000000,0.0146381,0.0000000,0.0000000,0.0000000,0.1069849,0.0000000,0.0000000,0.0146381
16.8577660,1.0994500,,-0.9473718,-0.3200607,0.0001812,0.0069061,-0.0038621,0.0088375,0.0033400,,,,3.3230560,-9.8629770,-24.5297356,0.0000000,0.0000000,0.0000000,0.0219890,0.9064717,0.0000000,0.0000000,0.1073068,0.0000000,0.0000000,0.0000000,0.9064717,0.0000000,0.0000000,0.1073068,0.0000000,0.0000000,0.0000000,0.9064717,0.0000000,0.0000000,0.1073068,0.1073068,0.0000000,0.0000000,0.0146381,0.0000000,0.0000000,0.0000000,0.1073068,0.0000000,0.0000000,0.0146381,0.0000000,0.0000000,0.0000000,0.1073068,0.0000000,0.0000000,0.0146381
16.8781590,1.0000501,,-0.9473726,-0.3200609,0.0001881,0.0068037,-0.0077904,0.0044874,0.0013877,,,,3.3230560,-9.8629770,-24.5297356,0.0000000,0.0000000,0.0000000,0.0200010,0.9107642,0.0000000,0.0000000,0.1075995,0.0000000,0.0000000,0.0000000,0.9107642,0.0000000,0.0000000,0.1075995,0.0000000,0.0000000,0.0000000,0.9107642,0.0000000,0.0000000,0.1075995,0.1075995,0.0000000,0.0000000,0.0146381,0.0000000,0.0000000,0.0000000,0.1075995,0.0000000,0.0000000,0.0146381,0.0000000,0.0000000,0.0000000,0.1075995,0.0000000,0.0000000,0.0146381
16.8980420,0.9999500,,-0.9473730,-0.3200611,0.0001888,0.0067315,-0.0046200,0.0044639,-0.0020298,,,,3.3230560,-9.8629770,-24.5297356,0.0000000,0.0000000,0.0000000,0.0199990,0.9150679,0.0000000,0.0000000,0.1078923,0.0000000,0.0000000,0.0000000,0.9150679,0.0000000,0.0000000,0.1078923,0.0000000,0.0000000,0.0000000,0.9150679,0.0000000,0.0000000,0.1078923,0.1078923,0.0000000,0.0000000,0.0146381,0.0000000,0.0000000,0.0000000,0.1078923,0.0000000,0.0000000,0.0146381,0.0000000,0.0000000,0.0000000,0.1078923,0.0000000,0.0000000,0.0146381
16.9179830,1.0000000,,-0.9473735,-0.3200612,0.0001879,0.0066460,-0.0095961,0.0075344,-0.0022738,,,,3.3230560,-9.8629770,-24.5297356,0.0000000,0.0000000,0.0000000,0.0200000,0.9193836,0.0000000,0.0000000,0.1081851,0.0000000,0.0000000,0.0000000,0.9193836,0.0000000,0.0000000,0.1081851,0.0000000,0.0000000,0.0000000,0.9193836,0.0000000,0.0000000,0.1081851,0.1081851,0.0000000,0.0000000,0.0146381,0.0000000,0.0000000,0.0000000,0.1081851,0.0000000,0.0000000,0.0146381,0.0000000,0.0000000,0.0000000,0.1081851,0.0000000,0.0000000,0.0146381
16.9338750,,0.9998800,-0.9473735,-0.3200612,0.0001879,0.0066460,,,,0.0000000,0.0000000,0.0000000,3.3230560,-9.8629770,-24.5297356,0.0000000,0.0000000,0.0000000,0.0999880,0.8900296,0.0000000,0.0000000,0.1047309,0.0000000,0.0000000,0.0000000,0.8900296,0.0000000,0.0000000,0.1047309,0.0000000,0.0000000,0.0000000,0.8900296,0.0000000,0.0000000,0.1047309,0.1047309,0.0000000,0.0000000,0.0142317,0.0000000,0.0000000,0.0000000,0.1047309,0.0000000,0.0000000,0.0142317,0.0000000,0.0000000,0.0000000,0.1047309,0.0000000,0.0000000,0.0142317
16.9474870,1.0003999,,-0.9473737,-0.3200616,0.0001498,0.0065911,-0.0033637,0.0129301,-0.0043489,,,,3.3230560,-9.8629770,-24.5297356,0.0000000,0.0000000,0.0000000,0.0200080,0.8942205,0.0000000,0.0000000,0.1050157,0.0000000,0.0000000,0.0000000,0.8942205,0.0000000,0.0000000,0.1050157,0.0000000,0.0000000,0.0000000,0.8942205,0.0000000,0.0000000,0.1050157,0.1050157,0.0000000,0.0000000,0.0142317,0.0000000,0.0000000,0.0000000,0.1050157,0.0000000,0.0000000,0.0142317,0.0000000,0.0000000,0.0000000,0.1050157,0.0000000,0.0000000,0.0142317
16.9607210,1.1496000,,-0.9473742,-0.3200621,0.0000926,0.0065085,-0.0024829,0.0147658,-0.0058747,,,,3.3230560,-9.8629770,-24.5297356,0.0000000,0.0000000,0.0000000,0.0229920,0.8990496,0.0000000,0.0000000,0.1053429,0.0000000,0.0000000,0.0000000,0.8990496,0.0000000,0.0000000,0.1053429,0.0000000,0.0000000,0.0000000,0.8990496,0.0000000,0.0000000,0.1053429,0.1053429,0.0000000,0.0000000,0.0142317,0.0000000,0.0000000,0.0000000,0.1053429,0.0000000,0.0000000,0.0142317,0.0000000,0.0000000,0.0000000,0.1053429,0.0000000,0.0000000,0.0142317
16.9821500,1.0500000,,-0.9473746,-0.3200624,0.0000701,0.0064319,-0.0039575,0.0068336,0.0038604,,,,3.3230560,-9.8629770,-24.5297356,0.0000000,0.0000000,0.0000000,0.0210000,0.9034740,0.0000000,0.0000000,0.1056418,0.0000000,0.0000000,0.0000000,0.9034740,0.0000000,0.0000000,0.1056418,0.0000000,0.0000000,0.0000000,0.9034740,0.0000000,0.0000000,0.1056418,0.1056418,0.0000000,0.0000000,0.0142317,0.0000000,0.0000000,0.0000000,0.1056418,0.0000000,0.0000000,0.0142317,0.0000000,0.0000000,0.0000000,0.1056418,0.0000000,0.0000000,0.0142317
17.0017630,1.0000000,,-0.9473748,-0.3200626,0.0000486,0.0063862,-0.0047101,0.0065067,0.0006714,,,,3.3230560,-9.8629770,-24.5297356,0.0000000,0.0000000,0.0000000,0.0200000,0.9076996,0.0000000,0.0000000,0.1059264,0.0000000,0.0000000,0.0000000,0.9076996,0.0000000,0.0000000,0.1059264,0.0000000,0.0000000,0.0000000,0.9076996,0.0000000,0.0000000,0.1059264,0.1059264,0.0000000,0.0000000,0.0142317,0.0000000,0.0000000,0.0000000,0.1059264,0.0000000,0.0000000,0.0142317,0.0000000,0.0000000,0.0000000,0.1059264,0.0000000,0.0000000,0.0142317
17.0221300,1.0001000,,-0.9473752,-0.3200629,0.0000265,0.0063123,-0.0019049,0.0123400,-0.0040970,,,,3.3230560,-9.8629770,-24.5297356,0.0000000,0.0000000,0.0000000,0.0200020,0.9119371,0.0000000,0.0000000,0.1062111,0.0000000,0.0000000,0.0000000,0.9119371,0.0000000,0.0000000,0.1062111,0.0000000,0.0000000,0.0000000,0.9119371,0.0000000,0.0000000,0.1062111,0.1062111,0.0000000,0.0000000,0.0142317,0.0000000,0.0000000,0.0000000,0.1062111,0.0000000,0.0000000,0.0142317,0.0000000,0.0000000,0.0000000,0.1062111,0.0000000,0.0000000,0.0142317
17.0390230,,1.0000000,-0.9473752,-0.3200629,0.0000265,0.0063123,,,,0.0000000,0.0000000,0.0000000,3.3230560,-9.8629770,-24.5297356,0.0000000,0.0000000,0.0000000,0.1000000,0.8830492,0.0000000,0.0000000,0.1028466,0.0000000,0.0000000,0.0000000,0.8830492,0.0000000,0.0000000,0.1028466,0.0000000,0.0000000,0.0000000,0.8830492,0.0000000,0.0000000,0.1028466,0.1028466,0.0000000,0.0000000,0.0138398,0.0000000,0.0000000,0.0000000,0.1028466,0.0000000,0.0000000,0.0138398,0.0000000,0.0000000,0.0000000,0.1028466,0.0000000,0.0000000,0.0138398
17.0527700,1.0000501,,-0.9473755,-0.3200633,-0.0000119,0.0062511,0.0033734,0.0059182,-0.0003777,,,,3.3230560,-9.8629770,-24.5297356,0.0000000,0.0000000,0.0000000,0.0200010,0.8871633,0.0000000,0.0000000,0.1031234,0.0000000,0.0000000,0.0000000,0.8871633,0.0000000,0.0000000,0.1031234,0.0000000,0.0000000,0.0000000,0.8871633,0.0000000,0.0000000,0.1031234,0.1031234,0.0000000,0.0000000,0.0138399,0.0000000,0.0000000,0.0000000,0.1031234,0.0000000,0.0000000,0.0138399,0.0000000,0.0000000,0.0000000,0.1031234,0.0000000,0.0000000,0.0138399
17.0656110,1.1998000,,-0.9473759,-0.3200636,-0.0000443,0.0061843,0.0013663,0.0009221,0.0027103,,,,3.3230560,-9.8629770,-24.5297356,0.0000000,0.0000000,0.0000000,0.0239960,0.8921124,0.0000000,0.0000000,0.1034555,0.0000000,0.0000000,0.0000000,0.8921124,0.0000000,0.0000000,0.1034555,0.0000000,0.0000000,0.0000000,0.8921124,0.0000000,0.0000000,0.1034555,0.1034555,0.0000000,0.0000000,0.0138399,0.0000000,0.0000000,0.0000000,0.1034555,0.0000000,0.0000000,0.0138399,0.0000000,0.0000000,0.0000000,0.1034555,0.0000000,0.0000000,0.0138399
17.0869630,1.0505000,,-0.9473763,-0.3200637,-0.0000382,0.0061280,0.0031093,0.0003466,0.0030336,,,,3.3230560,-9.8629770,-24.5297356,0.0000000,0.0000000,0.0000000,0.0210100,0.8964596,0.0000000,0.0000000,0.1037463,0.0000000,0.0000000,0.0000000,0.8964596,0.0000000,0.0000000,0.1037463,0.0000000,0.0000000,0.0000000,0.8964596,0.0000000,0.0000000,0.1037463,0.1037463,0.0000000,0.0000000,0.0138399,0.0000000,0.0000000,0.0000000,0.1037463,0.0000000,0.0000000,0.0138399,0.0000000,0.0000000,0.0000000,0.1037463,0.0000000,0.0000000,0.0138399
17.1067740,0.9995500,,-0.9473765,-0.3200638,-0.0000505,0.0060824,-0.0006808,0.0029428,0.0053926,,,,3.3230560,-9.8629770,-24.5297356,0.0000000,0.0000000,0.0000000,0.0199910,0.9006076,0.0000000,0.0000000,0.1040229,0.0000000,0.0000000,0.0000000,0.9006076,0.0000000,0.0000000,0.1040229,0.0000000,0.0000000,0.0000000,0.9006076,0.0000000,0.0000000,0.1040229,0.1040229,0.0000000,0.0000000,0.0138399,0.0000000,0.0000000,0.0000000,0.1040229,0.0000000,0.0000000,0.0138399,0.0000000,0.0000000,0.0000000,0.1040229,0.0000000,0.0000000,0.0138399
17.1271170,1.0001000,,-0.9473768,-0.3200641,-0.0000684,0.0060214,0.0050002,0.0031880,0.0055954,,,,3.3230560,-9.8629770,-24.5297356,0.0000000,0.0000000,0.0000000,0.0200020,0.9047690,0.0000000,0.0000000,0.1042998,0.0000000,0.0000000,0.0000000,0.9047690,0.0000000,0.0000000,0.1042998,0.0000000,0.0000000,0.0000000,0.9047690,0.0000000,0.0000000,0.1042998,0.1042998,0.0000000,0.0000000,0.0138399,0.0000000,0.0000000,0.0000000,0.1042998,0.0000000,0.0000000,0.0138399,0.0000000,0.0000000,0.0000000,0.1042998,0.0000000,0.0000000,0.0138399
17.1440420,,1.0199900,-0.9473768,-0.3200641,-0.0000684,0.0059763,,,,0.0000000,0.0000000,0.0000000,3.3230560,-9.8629770,-24.5297356,0.0000000,0.0000000,0.0000000,0.1019990,0.8763264,0.0000000,0.0000000,0.1010210,0.0000000,0.0000000,0.0000000,0.8763264,0.0000000,0.0000000,0.1010210,0.0000000,0.0000000,0.0000000,0.8763264,0.0000000,0.0000000,0.1010210,0.1010210,0.0000000,0.0000000,0.0134619,0.0000000,0.0000000,0.0000000,0.1010210,0.0000000,0.0000000,0.0134619,0.0000000,0.0000000,0.0000000,0.1010210,0.0000000,0.0000000,0.0134619
17.1578190,1.0000501,,-0.9473770,-0.3200642,-0.0000680,0.0059763,0.0037132,-0.0003744,0.0010582,,,,3.3230560,-9.8629770,-24.5297356,0.0000000,0.0000000,0.0000000,0.0200010,0.8803674,0.0000000,0.0000000,0.1012902,0.0000000,0.0000000,0.0000000,0.8803674,0.0000000,0.0000000,0.1012902,0.0000000,0.0000000,0.0000000,0.8803674,0.0000000,0.0000000,0.1012902,0.1012902,0.0000000,0.0000000,0.0134619,0.0000000,0.0000000,0.0000000,0.1012902,0.0000000,0.0000000,0.0134619,0.0000000,0.0000000,0.0000000,0.1012902,0.0000000,0.0000000,0.0134619
17.1705800,1.1998000,,-0.9473774,-0.3200643,-0.0000696,0.0059016,0.0031002,0.0038488,0.0014752,,,,3.3230560,-9.8629770,-24.5297356,0.0000000,0.0000000,0.0000000,0.0239960,0.8852285,0.0000000,0.0000000,0.1016132,0.0000000,0.0000000,0.0000000,0.8852285,0.0000000,0.0000000,0.1016132,0.0000000,0.0000000,0.0000000,0.8852285,0.0000000,0.0000000,0.1016132,0.1016132,0.0000000,0.0000000,0.0134619,0.0000000,0.0000000,0.0000000,0.1016132,0.0000000,0.0000000,0.0134619,0.0000000,0.0000000,0.0000000,0.1016132,0.0000000,0.0000000,0.0134619
17.1920270,1.0504500,,-0.9473777,-0.3200644,-0.0000747,0.0058578,0.0025495,0.0042361,0.0058340,,,,3.3230560,-9.8629770,-24.5297356,0.0000000,0.0000000,0.0000000,0.0210090,0.8894981,0.0000000,0.0000000,0.1018961,0.0000000,0.0000000,0.0000000,0.8894981,0.0000000,0.0000000,0.1018961,0.0000000,0.0000000,0.0000000,0.8894981,0.0000000,0.0000000,0.1018961,0.1018961,0.0000000,0.0000000,0.0134619,0.0000000,0.0000000,0.0000000,0.1018961,0.0000000,0.0000000,0.0134619,0.0000000,0.0000000,0.0000000,0.1018961,0.0000000,0.0000000,0.0134619
17.2117680,0.9996000,,-0.9473780,-0.3200645,-0.0000587,0.0057995,-0.0040200,0.0041322,0.0043513,,,,3.3230560,-9.8629770,-24.5297356,0.0000000,0.0000000,0.0000000,0.0199920,0.8935723,0.0000000,0.0000000,0.1021652,0.0000000,0.0000000,0.0000000,0.8935723,0.0000000,0.0000000,0.1021652,0.0000000,0.0000000,0.0000000,0.8935723,0.0000000,0.0000000,0.1021652,0.1021652,0.0000000,0.0000000,0.0134619,0.0000000,0.0000000,0.0000000,0.1021652,0.0000000,0.0000000,0.0134619,0.0000000,0.0000000,0.0000000,0.1021652,0.0000000,0.0000000,0.0134619
17.2310120,,1.0100200,-0.9473783,-0.3200644,-0.0000360,0.0057574,,,,0.0000000,0.0000000,0.0000000,3.3230560,-9.8629770,-24.5297356,0.0000000,0.0000000,0.0000000,0.1010020,0.8658185,0.0000000,0.0000000,0.0989920,0.0000000,0.0000000,0.0000000,0.8658185,0.0000000,0.0000000,0.0989920,0.0000000,0.0000000,0.0000000,0.8658185,0.0000000,0.0000000,0.0989920,0.0989920,0.0000000,0.0000000,0.0130991,0.0000000,0.0000000,0.0000000,0.0989920,0.0000000,0.0000000,0.0130991,0.0000000,0.0000000,0.0000000,0.0989920,0.0000000,0.0000000,0.0130991
17.2445850,1.0001000,,-0.9473783,-0.3200644,-0.0000360,0.0057574,-0.0045811,-0.0003295,0.0023893,,,,3.3230560,-9.8629770,-24.5297356,0.0000000,0.0000000,0.0000000,0.0200020,0.8697786,0.0000000,0.0000000,0.0992540,0.0000000,0.0000000,0.0000000,0.8697786,0.0000000,0.0000000,0.0992540,0.0000000,0.0000000,0.0000000,0.8697786,0.0000000,0.0000000,0.0992540,0.0992540,0.0000000,0.0000000,0.0130991,0.0000000,0.0000000,0.0000000,0.0992540,0.0000000,0.0000000,0.0130991,0.0000000,0.0000000,0.0000000,0.0992540,0.0000000,0.0000000,0.0130991
17.2579310,1.2999500,,-0.9473785,-0.3200645,-0.0000320,0.0057106,-0.0019320,0.0030014,0.0084883,,,,3.3230560,-9.8629770,-24.5297356,0.0000000,0.0000000,0.0000000,0.0259990,0.8749396,0.0000000,0.0000000,0.0995946,0.0000000,0.0000000,0.0000000,0.8749396,0.0000000,0.0000000,0.0995946,0.0000000,0.0000000,0.0000000,0.8749396,0.0000000,0.0000000,0.0995946,0.0995946,0.0000000,0.0000000,0.0130991,0.0000000,0.0000000,0.0000000,0.0995946,0.0000000,0.0000000,0.0130991,0.0000000,0.0000000,0.0000000,0.0995946,0.0000000,0.0000000,0.0130991
17.2778680,1.0000501,,-0.9473788,-0.3200645,-0.0000176,0.0056748,-0.0008134,-0.0029167,0.0049461,,,,3.3230560,-9.8629770,-24.5297356,0.0000000,0.0000000,0.0000000,0.0200010,0.8789235,0.0000000,0.0000000,0.0998566,0.0000000,0.0000000,0.0000000,0.8789235,0.0000000,0.0000000,0.0998566,0.0000000,0.0000000,0.0000000,0.8789235,0.0000000,0.0000000,0.0998566,0.0998566,0.0000000,0.0000000,0.0130991,0.0000000,0.0000000,0.0000000,0.0998566,0.0000000,0.0000000,0.0130991,0.0000000,0.0000000,0.0000000,0.0998566,0.0000000,0.0000000,0.0130991
17.2991540,1.0500000,,-0.9473790,-0.3200646,-0.0000192,0.0056244,0.0026756,0.0023563,0.0026867,,,,3.3230560,-9.8629770,-24.5297356,0.0000000,0.0000000,0.0000000,0.0210000,0.8831175,0.0000000,0.0000000,0.1001317,0.0000000,0.0000000,0.0000000,0.8831175,0.0000000,0.0000000,0.1001317,0.0000000,0.0000000,0.0000000,0.8831175,0.0000000,0.0000000,0.1001317,0.1001317,0.0000000,0.0000000,0.0130991,0.0000000,0.0000000,0.0000000,0.1001317,0.0000000,0.0000000,0.0130991,0.0000000,0.0000000,0.0000000,0.1001317,0.0000000,0.0000000,0.0130991
17.3190640,1.0001501,,-0.9473792,-0.3200645,0.0000012,0.0055863,0.0003154,0.0030245,0.0035101,,,,3.3230560,-9.8629770,-24.5297356,0.0000000,0.0000000,0.0000000,0.0200030,0.8871233,0.0000000,0.0000000,0.1003937,0.0000000,0.0000000,0.0000000,0.8871233,0.0000000,0.0000000,0.1003937,0.0000000,0.0000000,0.0000000,0.8871233,0.0000000,0.0000000,0.1003937,0.1003937,0.0000000,0.0000000,0.0130991,0.0000000,0.0000000,0.0000000,0.1003937,0.0000000,0.0000000,0.0130991,0.0000000,0.0000000,0.0000000,0.1003937,0.0000000,0.0000000,0.0130991
17.3347760,,1.0000600,-0.9473792,-0.3200645,0.0000012,0.0055863,,,,0.0000000,0.0000000,0.0000000,3.3230560,-9.8629770,-24.5297356,0.0000000,0.0000000,0.0000000,0.1000060,0.8597625,0.0000000,0.0000000,0.0972973,0.0000000,0.0000000,0.0000000,0.8597625,0.0000000,0.0000000,0.0972973,0.0000000,0.0000000,0.0000000,0.8597625,0.0000000,0.0000000,0.0972973,0.0972973,0.0000000,0.0000000,0.0127487,0.0000000,0.0000000,0.0000000,0.0972973,0.0000000,0.0000000,0.0127487,0.0000000,0.0000000,0.0000000,0.0972973,0.0000000,0.0000000,0.0127487
17.3483800,1.0002000,,-0.9473794,-0.3200645,0.0000102,0.0055599,-0.0045191,0.0109117,0.0058749,,,,3.3230560,-9.8629770,-24.5297356,0.0000000,0.0000000,0.0000000,0.0200040,0.8636552,0.0000000,0.0000000,0.0975523,0.0000000,0.0000000,0.0000000,0.8636552,0.0000000,0.0000000,0.0975523,0.0000000,0.0000000,0.0000000,0.8636552,0.0000000,0.0000000,0.0975523,0.0975523,0.0000000,0.0000000,0.0127487,0.0000000,0.0000000,0.0000000,0.0975523,0.0000000,0.0000000,0.0127487,0.0000000,0.0000000,0.0000000,0.0975523,0.0000000,0.0000000,0.0127487
17.3618310,1.1495000,,-0.9473797,-0.3200647,-0.0000001,0.0054981,-0.0008329,0.0081643,-0.0000151,,,,3.3230560,-9.8629770,-24.5297356,0.0000000,0.0000000,0.0000000,0.0229900,0.8681406,0.0000000,0.0000000,0.0978454,0.0000000,0.0000000,0.0000000,0.8681406,0.0000000,0.0000000,0.0978454,0.0000000,0.0000000,0.0000000,0.8681406,0.0000000,0.0000000,0.0978454,0.0978454,0.0000000,0.0000000,0.0127487,0.0000000,0.0000000,0.0000000,0.0978454,0.0000000,0.0000000,0.0127487,0.0000000,0.0000000,0.0000000,0.0978454,0.0000000,0.0000000,0.0127487
17.3819550,1.0001501,,-0.9473800,-0.3200650,-0.0000363,0.0054274,0.0017122,0.0130467,-0.0010070,,,,3.3230560,-9.8629770,-24.5297356,0.0000000,0.0000000,0.0000000,0.0200030,0.8720551,0.0000000,0.0000000,0.0981004,0.0000000,0.0000000,0.0000000,0.8720551,0.0000000,0.0000000,0.0981004,0.0000000,0.0000000,0.0000000,0.8720551,0.0000000,0.0000000,0.0981004,0.0981004,0.0000000,0.0000000,0.0127487,0.0000000,0.0000000,0.0000000,0.0981004,0.0000000,0.0000000,0.0127487,0.0000000,0.0000000,0.0000000,0.0981004,0.0000000,0.0000000,0.0127487
17.4021520,1.0000000,,-0.9473803,-0.3200653,-0.0000659,0.0053669,-0.0045913,0.0054171,-0.0017471,,,,3.3230560,-9.8629770,-24.5297356,0.0000000,0.0000000,0.0000000,0.0200000,0.8759791,0.0000000,0.0000000,0.0983554,0.0000000,0.0000000,0.0000000,0.8759791,0.0000000,0.0000000,0.0983554,0.0000000,0.0000000,0.0000000,0.8759791,0.0000000,0.0000000,0.0983554,0.0983554,0.0000000,0.0000000,0.0127487,0.0000000,0.0000000,0.0000000,0.0983554,0.0000000,0.0000000,0.0127487,0.0000000,0.0000000,0.0000000,0.0983554,0.0000000,0.0000000,0.0127487
17.4217950,0.9998500,,-0.9473805,-0.3200655,-0.0000906,0.0053211,-0.0011589,0.0057221,0.0013008,,,,3.3230560,-9.8629770,-24.5297356,0.0000000,0.0000000,0.0000000,0.0199970,0.8799127,0.0000000,0.0000000,0.0986104,0.0000000,0.0000000,0.0000000,0.8799127,0.0000000,0.0000000,0.0986104,0.0000000,0.0000000,0.0000000,0.8799127,0.0000000,0.0000000,0.0986104,0.0986104,0.0000000,0.0000000,0.0127487,0.0000000,0.0000000,0.0000000,0.0986104,0.0000000,0.0000000,0.0127487,0.0000000,0.0000000,0.0000000,0.0986104,0.0000000,0.0000000,0.0127487
17.4378390,,1.0199300,-0.9473805,-0.3200655,-0.0000906,0.0053211,,,,0.0000000,0.0000000,0.0000000,3.3230560,-9.8629770,-24.5297356,0.0000000,0.0000000,0.0000000,0.1019930,0.8529881,0.0000000,0.0000000,0.0955930,0.0000000,0.0000000,0.0000000,0.8529881,0.0000000,0.0000000,0.0955930,0.0000000,0.0000000,0.0000000,0.8529881,0.0000000,0.0000000,0.0955930,0.0955930,0.0000000,0.0000000,0.0124106,0.0000000,0.0000000,0.0000000,0.0955930,0.0000000,0.0000000,0.0124106,0.0000000,0.0000000,0.0000000,0.0955930,0.0000000,0.0000000,0.0124106
17.4517670,1.0000000,,-0.9473807,-0.3200656,-0.0000880,0.0052771,-0.0052639,0.0029145,-0.0015697,,,,3.3230560,-9.8629770,-24.5297356,0.0000000,0.0000000,0.0000000,0.0200000,0.8568118,0.0000000,0.0000000,0.0958412,0.0000000,0.0000000,0.0000000,0.8568118,0.0000000,0.0000000,0.0958412,0.0000000,0.0000000,0.0000000,0.8568118,0.0000000,0.0000000,0.0958412,0.0958412,0.0000000,0.0000000,0.0124106,0.0000000,0.0000000,0.0000000,0.0958412,0.0000000,0.0000000,0.0124106,0.0000000,0.0000000,0.0000000,0.0958412,0.0000000,0.0000000,0.0124106
17.4648350,1.1500000,,-0.9473809,-0.3200656,-0.0000702,0.0052366,-0.0031202,-0.0009536,-0.0027609,,,,3.3230560,-9.8629770,-24.5297356,0.0000000,0.0000000,0.0000000,0.0230000,0.8612205,0.0000000,0.0000000,0.0961266,0.0000000,0.0000000,0.0000000,0.8612205,0.0000000,0.0000000,0.0961266,0.0000000,0.0000000,0.0000000,0.8612205,0.0000000,0.0000000,0.0961266,0.0961266,0.0000000,0.0000000,0.0124106,0.0000000,0.0000000,0.0000000,0.0961266,0.0000000,0.0000000,0.0124106,0.0000000,0.0000000,0.0000000,0.0961266,0.0000000,0.0000000,0.0124106
17.4859270,1.0505000,,-0.9473812,-0.3200656,-0.0000591,0.0051815,-0.0010489,0.0053444,0.0051885,,,,3.3230560,-9.8629770,-24.5297356,0.0000000,0.0000000,0.0000000,0.0210100,0.8652598,0.0000000,0.0000000,0.0963874,0.0000000,0.0000000,0.0000000,0.8652598,0.0000000,0.0000000,0.0963874,0.0000000,0.0000000,0.0000000,0.8652598,0.0000000,0.0000000,0.0963874,0.0963874,0.0000000,0.0000000,0.0124106,0.0000000,0.0000000,0.0000000,0.0963874,0.0000000,0.0000000,0.0124106,0.0000000,0.0000000,0.0000000,0.0963874,0.0000000,0.0000000,0.0124106
17.5071030,1.0496000,,-0.9473816,-0.3200656,-0.0000354,0.0051181,-0.0065441,0.0045338,0.0013506,,,,3.3230560,-9.8629770,-24.5297356,0.0000000,0.0000000,0.0000000,0.0209920,0.8693065,0.0000000,0.0000000,0.0966479,0.0000000,0.0000000,0.0000000,0.8693065,0.0000000,0.0000000,0.0966479,0.0000000,0.0000000,0.0000000,0.8693065,0.0000000,0.0000000,0.0966479,0.0966479,0.0000000,0.0000000,0.0124106,0.0000000,0.0000000,0.0000000,0.0966479,0.0000000,0.0000000,0.0124106,0.0000000,0.0000000,0.0000000,0.0966479,0.0000000,0.0000000,0.0124106
17.5267650,0.9999000,,-0.9473819,-0.3200657,-0.0000322,0.0050658,-0.0019674,0.0077448,0.0026056,,,,3.3230560,-9.8629770,-24.5297356,0.0000000,0.0000000,0.0000000,0.0199980,0.8731720,0.0000000,0.0000000,0.0968961,0.0000000,0.0000000,0.0000000,0.8731720,0.0000000,0.0000000,0.0968961,0.0000000,0.0000000,0.0000000,0.8731720,0.0000000,0.0000000,0.0968961,0.0968961,0.0000000,0.0000000,0.0124106,0.0000000,0.0000000,0.0000000,0.0968961,0.0000000,0.0000000,0.0124106,0.0000000,0.0000000,0.0000000,0.0968961,0.0000000,0.0000000,0.0124106
17.5428080,,1.0200200,-0.9473819,-0.3200657,-0.0000322,0.0050658,,,,0.0000000,0.0000000,0.0000000,3.3230560,-9.8629770,-24.5297356,0.0000000,0.0000000,0.0000000,0.1020020,0.8466522,0.0000000,0.0000000,0.0939532,0.0000000,0.0000000,0.0000000,0.8466522,0.0000000,0.0000000,0.0939532,0.0000000,0.0000000,0.0000000,0.8466522,0.0000000,0.0000000,0.0939532,0.0939532,0.0000000,0.0000000,0.0120840,0.0000000,0.0000000,0.0000000,0.0939532,0.0000000,0.0000000,0.0120840,0.0000000,0.0000000,0.0000000,0.0939532,0.0000000,0.0000000,0.0120840
17.5567030,1.0000000,,-0.9473821,-0.3200657,-0.0000289,0.0050085,-0.0006328,0.0088010,0.0046979,,,,3.3230560,-9.8629770,-24.5297356,0.0000000,0.0000000,0.0000000,0.0200000,0.8504103,0.0000000,0.0000000,0.0941949,0.0000000,0.0000000,0.0000000,0.8504103,0.0000000,0.0000000,0.0941949,0.0000000,0.0000000,0.0000000,0.8504103,0.0000000,0.0000000,0.0941949,0.0941949,0.0000000,0.0000000,0.0120840,0.0000000,0.0000000,0.0000000,0.0941949,0.0000000,0.0000000,0.0120840,0.0000000,0.0000000,0.0000000,0.0941949,0.0000000,0.0000000,0.0120840
17.5698200,1.1500000,,-0.9473823,-0.3200657,-0.0000099,0.0049586,-0.0045583,0.0046599,-0.0008478,,,,3.3230560,-9.8629770,-24.5297356,0.0000000,0.0000000,0.0000000,0.0230000,0.8547433,0.0000000,0.0000000,0.0944728,0.0000000,0.0000000,0.0000000,0.8547433,0.0000000,0.0000000,0.0944728,0.0000000,0.0000000,0.0000000,0.8547433,0.0000000,0.0000000,0.0944728,0.0944728,0.0000000,0.0000000,0.0120840,0.0000000,0.0000000,0.0000000,0.0944728,0.0000000,0.0000000,0.0120840,0.0000000,0.0000000,0.0000000,0.0944728,0.0000000,0.0000000,0.0120840
17.5909140,1.0505000,,-0.9473827,-0.3200657,0.0000119,0.0048907,-0.0018367,0.0074035,-0.0050855,,,,3.3230560,-9.8629770,-24.5297356,0.0000000,0.0000000,0.0000000,0.0210100,0.8587130,0.0000000,0.0000000,0.0947267,0.0000000,0.0000000,0.0000000,0.8587130,0.0000000,0.0000000,0.0947267,0.0000000,0.0000000,0.0000000,0.8587130,0.0000000,0.0000000,0.0947267,0.0947267,0.0000000,0.0000000,0.0120840,0.0000000,0.0000000,0.0000000,0.0947267,0.0000000,0.0000000,0.0120840,0.0000000,0.0000000,0.0000000,0.0947267,0.0000000,0.0000000,0.0120840
17.6121000,1.0496000,,-0.9473830,-0.3200657,0.0000342,0.0048245,0.0000582,0.0104309,-0.0028021,,,,3.3230560,-9.8629770,-24.5297356,0.0000000,0.0000000,0.0000000,0.0209920,0.8626900,0.0000000,0.0000000,0.0949803,0.0000000,0.0000000,0.0000000,0.8626900,0.0000000,0.0000000,0.0949803,0.0000000,0.0000000,0.0000000,0.8626900,0.0000000,0.0000000,0.0949803,0.0949803,0.0000000,0.0000000,0.0120840,0.0000000,0.0000000,0.0000000,0.0949803,0.0000000,0.0000000,0.0120840,0.0000000,0.0000000,0.0000000,0.0949803,0.0000000,0.0000000,0.0120840
17.6348340,,0.9999600,-0.9473833,-0.3200657,0.0000564,0.0047698,,,,0.0000000,0.0000000,0.0000000,3.3230560,-9.8629770,-24.5297356,0.0000000,0.0000000,0.0000000,0.0999960,0.8367937,0.0000000,0.0000000,0.0921292,0.0000000,0.0000000,0.0000000,0.8367937,0.0000000,0.0000000,0.0921292,0.0000000,0.0000000,0.0000000,0.8367937,0.0000000,0.0000000,0.0921292,0.0921292,0.0000000,0.0000000,0.0117701,0.0000000,0.0000000,0.0000000,0.0921292,0.0000000,0.0000000,0.0117701,0.0000000,0.0000000,0.0000000,0.0921292,0.0000000,0.0000000,0.0117701
17.6486810,1.1003500,,-0.9473833,-0.3200657,0.0000564,0.0047698,-0.0006728,0.0040939,-0.0062991,,,,3.3230560,-9.8629770,-24.5297356,0.0000000,0.0000000,0.0000000,0.0220070,0.8408486,0.0000000,0.0000000,0.0923882,0.0000000,0.0000000,0.0000000,0.8408486,0.0000000,0.0000000,0.0923882,0.0000000,0.0000000,0.0000000,0.8408486,0.0000000,0.0000000,0.0923882,0.0923882,0.0000000,0.0000000,0.0117701,0.0000000,0.0000000,0.0000000,0.0923882,0.0000000,0.0000000,0.0117701,0.0000000,0.0000000,0.0000000,0.0923882,0.0000000,0.0000000,0.0117701
17.6619010,1.3995501,,-0.9473836,-0.3200657,0.0000682,0.0047180,-0.0071189,0.0035652,-0.0048738,,,,3.3230560,-9.8629770,-24.5297356,0.0000000,0.0000000,0.0000000,0.0279910,0.8460207,0.0000000,0.0000000,0.0927177,0.0000000,0.0000000,0.0000000,0.8460207,0.0000000,0.0000000,0.0927177,0.0000000,0.0000000,0.0000000,0.8460207,0.0000000,0.0000000,0.0927177,0.0927177,0.0000000,0.0000000,0.0117702,0.0000000,0.0000000,0.0000000,0.0927177,0.0000000,0.0000000,0.0117702,0.0000000,0.0000000,0.0000000,0.0927177,0.0000000,0.0000000,0.0117702
17.6818370,1.0006001,,-0.9473838,-0.3200658,0.0000724,0.0046708,-0.0042308,0.0003330,-0.0048936,,,,3.3230560,-9.8629770,-24.5297356,0.0000000,0.0000000,0.0000000,0.0200120,0.8497316,0.0000000,0.0000000,0.0929532,0.0000000,0.0000000,0.0000000,0.8497316,0.0000000,0.0000000,0.0929532,0.0000000,0.0000000,0.0000000,0.8497316,0.0000000,0.0000000,0.0929532,0.0929532,0.0000000,0.0000000,0.0117702,0.0000000,0.0000000,0.0000000,0.0929532,0.0000000,0.0000000,0.0117702,0.0000000,0.0000000,0.0000000,0.0929532,0.0000000,0.0000000,0.0117702
17.7018430,0.9995000,,-0.9473839,-0.3200659,0.0000594,0.0046368,-0.0047628,0.0016161,0.0014442,,,,3.3230560,-9.8629770,-24.5297356,0.0000000,0.0000000,0.0000000,0.0199900,0.8534479,0.0000000,0.0000000,0.0931885,0.0000000,0.0000000,0.0000000,0.8534479,0.0000000,0.0000000,0.0931885,0.0000000,0.0000000,0.0000000,0.8534479,0.0000000,0.0000000,0.0931885,0.0931885,0.0000000,0.0000000,0.0117702,0.0000000,0.0000000,0.0000000,0.0931885,0.0000000,0.0000000,0.0117702,0.0000000,0.0000000,0.0000000,0.0931885,0.0000000,0.0000000,0.0117702
17.7227400,1.0501500,,-0.9473840,-0.3200659,0.0000594,0.0046212,-0.0050136,-0.0016410,0.0055897,,,,3.3230560,-9.8629770,-24.5297356,0.0000000,0.0000000,0.0000000,0.0210030,0.8573624,0.0000000,0.0000000,0.0934357,0.0000000,0.0000000,0.0000000,0.8573624,0.0000000,0.0000000,0.0934357,0.0000000,0.0000000,0.0000000,0.8573624,0.0000000,0.0000000,0.0934357,0.0934357,0.0000000,0.0000000,0.0117702,0.0000000,0.0000000,0.0000000,0.0934357,0.0000000,0.0000000,0.0117702,0.0000000,0.0000000,0.0000000,0.0934357,0.0000000,0.0000000,0.0117702
17.7386720,,1.0200200,-0.9473840,-0.3200659,0.0000594,0.0046212,,,,0.0000000,0.0000000,0.0000000,3.3230560,-9.8629770,-24.5297356,0.0000000,0.0000000,0.0000000,0.1020020,0.8317801,0.0000000,0.0000000,0.0906478,0.0000000,0.0000000,0.0000000,0.8317801,0.0000000,0.0000000,0.0906478,0.0000000,0.0000000,0.0000000,0.8317801,0.0000000,0.0000000,0.0906478,0.0906478,0.0000000,0.0000000,0.0114663,0.0000000,0.0000000,0.0000000,0.0906478,0.0000000,0.0000000,0.0114663,0.0000000,0.0000000,0.0000000,0.0906478,0.0000000,0.0000000,0.0114663
17.7511390,1.1000500,,-0.9473841,-0.3200660,0.0000434,0.0046014,-0.0041852,0.0018269,0.0037561,,,,3.3230560,-9.8629770,-24.5297356,0.0000000,0.0000000,0.0000000,0.0220010,0.8357688,0.0000000,0.0000000,0.0909000,0.0000000,0.0000000,0.0000000,0.8357688,0.0000000,0.0000000,0.0909000,0.0000000,0.0000000,0.0000000,0.8357688,0.0000000,0.0000000,0.0909000,0.0909000,0.0000000,0.0000000,0.0114663,0.0000000,0.0000000,0.0000000,0.0909000,0.0000000,0.0000000,0.0114663,0.0000000,0.0000000,0.0000000,0.0909000,0.0000000,0.0000000,0.0114663
17.7660300,1.0497000,,-0.9473844,-0.3200662,0.0000386,0.0045302,-0.0047019,0.0041788,0.0067456,,,,3.3230560,-9.8629770,-24.5297356,0.0000000,0.0000000,0.0000000,0.0209940,0.8395855,0.0000000,0.0000000,0.0911408,0.0000000,0.0000000,0.0000000,0.8395855,0.0000000,0.0000000,0.0911408,0.0000000,0.0000000,0.0000000,0.8395855,0.0000000,0.0000000,0.0911408,0.0911408,0.0000000,0.0000000,0.0114663,0.0000000,0.0000000,0.0000000,0.0911408,0.0000000,0.0000000,0.0114663,0.0000000,0.0000000,0.0000000,0.0911408,0.0000000,0.0000000,0.0114663
17.7859230,1.0003500,,-0.9473845,-0.3200663,0.0000289,0.0044865,-0.0000850,-0.0002833,0.0075079,,,,3.3230560,-9.8629770,-24.5297356,0.0000000,0.0000000,0.0000000,0.0200070,0.8432325,0.0000000,0.0000000,0.0913702,0.0000000,0.0000000,0.0000000,0.8432325,0.0000000,0.0000000,0.0913702,0.0000000,0.0000000,0.0000000,0.8432325,0.0000000,0.0000000,0.0913702,0.0913702,0.0000000,0.0000000,0.0114663,0.0000000,0.0000000,0.0000000,0.0913702,0.0000000,0.0000000,0.0114663,0.0000000,0.0000000,0.0000000,0.0913702,0.0000000,0.0000000,0.0114663
17.8068910,1.0497501,,-0.9473847,-0.3200663,0.0000343,0.0044458,-0.0004316,0.0006289,0.0015414,,,,3.3230560,-9.8629770,-24.5297356,0.0000000,0.0000000,0.0000000,0.0209950,0.8470691,0.0000000,0.0000000,0.0916109,0.0000000,0.0000000,0.0000000,0.8470691,0.0000000,0.0000000,0.0916109,0.0000000,0.0000000,0.0000000,0.8470691,0.0000000,0.0000000,0.0916109,0.0916109,0.0000000,0.0000000,0.0114663,0.0000000,0.0000000,0.0000000,0.0916109,0.0000000,0.0000000,0.0114663,0.0000000,0.0000000,0.0000000,0.0916109,0.0000000,0.0000000,0.0114663
17.8276340,1.0500000,,-0.9473848,-0.3200663,0.0000335,0.0044290,0.0023095,0.0006044,-0.0048598,,,,3.3230560,-9.8629770,-24.5297356,0.0000000,0.0000000,0.0000000,0.0210000,0.8509167,0.0000000,0.0000000,0.0918517,0.0000000,0.0000000,0.0000000,0.8509167,0.0000000,0.0000000,0.0918517,0.0000000,0.0000000,0.0000000,0.8509167,0.0000000,0.0000000,0.0918517,0.0918517,0.0000000,0.0000000,0.0114663,0.0000000,0.0000000,0.0000000,0.0918517,0.0000000,0.0000000,0.0114663,0.0000000,0.0000000,0.0000000,0.0918517,0.0000000,0.0000000,0.0114663
17.8436430,,1.0000199,-0.9473848,-0.3200663,0.0000335,0.0044290,,,,0.0000000,0.0000000,0.0000000,3.3230560,-9.8629770,-24.5297356,0.0000000,0.0000000,0.0000000,0.1000020,0.8257120,0.0000000,0.0000000,0.0891310,0.0000000,0.0000000,0.0000000,0.8257120,0.0000000,0.0000000,0.0891310,0.0000000,0.0000000,0.0000000,0.8257120,0.0000000,0.0000000,0.0891310,0.0891310,0.0000000,0.0000000,0.0111727,0.0000000,0.0000000,0.0000000,0.0891310,0.0000000,0.0000000,0.0111727,0.0000000,0.0000000,0.0000000,0.0891310,0.0000000,0.0000000,0.0111727
17.8561230,1.1000500,,-0.9473849,-0.3200663,0.0000468,0.0044091,0.0007886,-0.0033294,-0.0017127,,,,3.3230560,-9.8629770,-24.5297356,0.0000000,0.0000000,0.0000000,0.0220010,0.8296340,0.0000000,0.0000000,0.0893768,0.0000000,0.0000000,0.0000000,0.8296340,0.0000000,0.0000000,0.0893768,0.0000000,0.0000000,0.0000000,0.8296340,0.0000000,0.0000000,0.0893768,0.0893768,0.0000000,0.0000000,0.0111727,0.0000000,0.0000000,0.0000000,0.0893768,0.0000000,0.0000000,0.0111727,0.0000000,0.0000000,0.0000000,0.0893768,0.0000000,0.0000000,0.0111727
17.8710010,1.0498501,,-0.9473850,-0.3200664,0.0000394,0.0043911,0.0031790,0.0020050,-0.0023365,,,,3.3230560,-9.8629770,-24.5297356,0.0000000,0.0000000,0.0000000,0.0209970,0.8333873,0.0000000,0.0000000,0.0896114,0.0000000,0.0000000,0.0000000,0.8333873,0.0000000,0.0000000,0.0896114,0.0000000,0.0000000,0.0000000,0.8333873,0.0000000,0.0000000,0.0896114,0.0896114,0.0000000,0.0000000,0.0111727,0.0000000,0.0000000,0.0000000,0.0896114,0.0000000,0.0000000,0.0111727,0.0000000,0.0000000,0.0000000,0.0896114,0.0000000,0.0000000,0.0111727
17.8909490,1.0003999,,-0.9473850,-0.3200663,0.0000492,0.0043957,0.0012157,-0.0026214,0.0017462,,,,3.3230560,-9.8629770,-24.5297356,0.0000000,0.0000000,0.0000000,0.0200080,0.8369731,0.0000000,0.0000000,0.0898349,0.0000000,0.0000000,0.0000000,0.8369731,0.0000000,0.0000000,0.0898349,0.0000000,0.0000000,0.0000000,0.8369731,0.0000000,0.0000000,0.0898349,0.0898349,0.0000000,0.0000000,0.0111727,0.0000000,0.0000000,0.0000000,0.0898349,0.0000000,0.0000000,0.0111727,0.0000000,0.0000000,0.0000000,0.0898349,0.0000000,0.0000000,0.0111727
17.9118810,1.0497000,,-0.9473851,-0.3200665,0.0000381,0.0043517,-0.0024516,0.0062042,0.0001254,,,,3.3230560,-9.8629770,-24.5297356,0.0000000,0.0000000,0.0000000,0.0209940,0.8407451,0.0000000,0.0000000,0.0900695,0.0000000,0.0000000,0.0000000,0.8407451,0.0000000,0.0000000,0.0900695,0.0000000,0.0000000,0.0000000,0.8407451,0.0000000,0.0000000,0.0900695,0.0900695,0.0000000,0.0000000,0.0111727,0.0000000,0.0000000,0.0000000,0.0900695,0.0000000,0.0000000,0.0111727,0.0000000,0.0000000,0.0000000,0.0900695,0.0000000,0.0000000,0.0111727
17.9327330,1.0498999,,-0.9473852,-0.3200666,0.0000177,0.0043277,0.0032603,0.0057190,-0.0026381,,,,3.3230560,-9.8629770,-24.5297356,0.0000000,0.0000000,0.0000000,0.0209980,0.8445277,0.0000000,0.0000000,0.0903041,0.0000000,0.0000000,0.0000000,0.8445277,0.0000000,0.0000000,0.0903041,0.0000000,0.0000000,0.0000000,0.8445277,0.0000000,0.0000000,0.0903041,0.0903041,0.0000000,0.0000000,0.0111727,0.0000000,0.0000000,0.0000000,0.0903041,0.0000000,0.0000000,0.0111727,0.0000000,0.0000000,0.0000000,0.0903041,0.0000000,0.0000000,0.0111727
17.9486160,,1.0199599,-0.9473852,-0.3200666,0.0000177,0.0043277,,,,0.0000000,0.0000000,0.0000000,3.3230560,-9.8629770,-24.5297356,0.0000000,0.0000000,0.0000000,0.1019960,0.8196945,0.0000000,0.0000000,0.0876487,0.0000000,0.0000000,0.0000000,0.8196945,0.0000000,0.0000000,0.0876487,0.0000000,0.0000000,0.0000000,0.8196945,0.0000000,0.0000000,0.0876487,0.0876487,0.0000000,0.0000000,0.0108887,0.0000000,0.0000000,0.0000000,0.0876487,0.0000000,0.0000000,0.0108887,0.0000000,0.0000000,0.0000000,0.0876487,0.0000000,0.0000000,0.0108887
17.9617650,1.1004000,,-0.9473853,-0.3200667,-0.0000034,0.0043012,-0.0000025,0.0015320,-0.0003577,,,,3.3230560,-9.8629770,-24.5297356,0.0000000,0.0000000,0.0000000,0.0220080,0.8235525,0.0000000,0.0000000,0.0878884,0.0000000,0.0000000,0.0000000,0.8235525,0.0000000,0.0000000,0.0878884,0.0000000,0.0000000,0.0000000,0.8235525,0.0000000,0.0000000,0.0878884,0.0878884,0.0000000,0.0000000,0.0108888,0.0000000,0.0000000,0.0000000,0.0878884,0.0000000,0.0000000,0.0108888,0.0000000,0.0000000,0.0000000,0.0878884,0.0000000,0.0000000,0.0108888
17.9748130,0.9996500,,-0.9473853,-0.3200668,-0.0000288,0.0042892,0.0024859,-0.0000809,0.0042004,,,,3.3230560,-9.8629770,-24.5297356,0.0000000,0.0000000,0.0000000,0.0199930,0.8270668,0.0000000,0.0000000,0.0881061,0.0000000,0.0000000,0.0000000,0.8270668,0.0000000,0.0000000,0.0881061,0.0000000,0.0000000,0.0000000,0.8270668,0.0000000,0.0000000,0.0881061,0.0881061,0.0000000,0.0000000,0.0108888,0.0000000,0.0000000,0.0000000,0.0881061,0.0000000,0.0000000,0.0108888,0.0000000,0.0000000,0.0000000,0.0881061,0.0000000,0.0000000,0.0108888
17.9949890,1.0002000,,-0.9473853,-0.3200668,-0.0000335,0.0042765,0.0020440,0.0022789,0.0008642,,,,3.3230560,-9.8629770,-24.5297356,0.0000000,0.0000000,0.0000000,0.0200040,0.8305917,0.0000000,0.0000000,0.0883239,0.0000000,0.0000000,0.0000000,0.8305917,0.0000000,0.0000000,0.0883239,0.0000000,0.0000000,0.0000000,0.8305917,0.0000000,0.0000000,0.0883239,0.0883239,0.0000000,0.0000000,0.0108888,0.0000000,0.0000000,0.0000000,0.0883239,0.0000000,0.0000000,0.0108888,0.0000000,0.0000000,0.0000000,0.0883239,0.0000000,0.0000000,0.0108888
18.0149680,0.9999500,,-0.9473854,-0.3200670,-0.0000542,0.0042449,-0.0013736,0.0058468,-0.0032452,,,,3.3230560,-9.8629770,-24.5297356,0.0000000,0.0000000,0.0000000,0.0199990,0.8341245,0.0000000,0.0000000,0.0885416,0.0000000,0.0000000,0.0000000,0.8341245,0.0000000,0.0000000,0.0885416,0.0000000,0.0000000,0.0000000,0.8341245,0.0000000,0.0000000,0.0885416,0.0885416,0.0000000,0.0000000,0.0108888,0.0000000,0.0000000,0.0000000,0.0885416,0.0000000,0.0000000,0.0108888,0.0000000,0.0000000,0.0000000,0.0885416,0.0000000,0.0000000,0.0108888
18.0347790,1.0002501,,-0.9473855,-0.3200670,-0.0000589,0.0042240,-0.0018465,0.0002989,0.0039774,,,,3.3230560,-9.8629770,-24.5297356,0.0000000,0.0000000,0.0000000,0.0200050,0.8376670,0.0000000,0.0000000,0.0887595,0.0000000,0.0000000,0.0000000,0.8376670,0.0000000,0.0000000,0.0887595,0.0000000,0.0000000,0.0000000,0.8376670,0.0000000,0.0000000,0.0887595,0.0887595,0.0000000,0.0000000,0.0108888,0.0000000,0.0000000,0.0000000,0.0887595,0.0000000,0.0000000,0.0108888,0.0000000,0.0000000,0.0000000,0.0887595,0.0000000,0.0000000,0.0108888
18.0510350,,1.0200700,-0.9473855,-0.3200670,-0.0000589,0.0042240,,,,0.0000000,0.0000000,0.0000000,3.3230560,-9.8629770,-24.5297356,0.0000000,0.0000000,0.0000000,0.1020070,0.8132299,0.0000000,0.0000000,0.0861701,0.0000000,0.0000000,0.0000000,0.8132299,0.0000000,0.0000000,0.0861701,0.0000000,0.0000000,0.0000000,0.8132299,0.0000000,0.0000000,0.0861701,0.0861701,0.0000000,0.0000000,0.0106144,0.0000000,0.0000000,0.0000000,0.0861701,0.0000000,0.0000000,0.0106144,0.0000000,0.0000000,0.0000000,0.0861701,0.0000000,0.0000000,0.0106144
18.0637500,1.0997001,,-0.9473855,-0.3200670,-0.0000701,0.0042083,-0.0011140,0.0067870,0.0053914,,,,3.3230560,-9.8629770,-24.5297356,0.0000000,0.0000000,0.0000000,0.0219940,0.8170204,0.0000000,0.0000000,0.0864036,0.0000000,0.0000000,0.0000000,0.8170204,0.0000000,0.0000000,0.0864036,0.0000000,0.0000000,0.0000000,0.8170204,0.0000000,0.0000000,0.0864036,0.0864036,0.0000000,0.0000000,0.0106144,0.0000000,0.0000000,0.0000000,0.0864036,0.0000000,0.0000000,0.0106144,0.0000000,0.0000000,0.0000000,0.0864036,0.0000000,0.0000000,0.0106144
18.0771560,0.9998500,,-0.9473857,-0.3200670,-0.0000573,0.0041813,-0.0031434,0.0014633,0.0036570,,,,3.3230560,-9.8629770,-24.5297356,0.0000000,0.0000000,0.0000000,0.0199970,0.8204760,0.0000000,0.0000000,0.0866158,0.0000000,0.0000000,0.0000000,0.8204760,0.0000000,0.0000000,0.0866158,0.0000000,0.0000000,0.0000000,0.8204760,0.0000000,0.0000000,0.0866158,0.0866158,0.0000000,0.0000000,0.0106144,0.0000000,0.0000000,0.0000000,0.0866158,0.0000000,0.0000000,0.0106144,0.0000000,0.0000000,0.0000000,0.0866158,0.0000000,0.0000000,0.0106144
18.0969170,1.0000000,,-0.9473858,-0.3200671,-0.0000636,0.0041498,0.0014419,0.0024177,0.0027898,,,,3.3230560,-9.8629770,-24.5297356,0.0000000,0.0000000,0.0000000,0.0200000,0.8239406,0.0000000,0.0000000,0.0868281,0.0000000,0.0000000,0.0000000,0.8239406,0.0000000,0.0000000,0.0868281,0.0000000,0.0000000,0.0000000,0.8239406,0.0000000,0.0000000,0.0868281,0.0868281,0.0000000,0.0000000,0.0106144,0.0000000,0.0000000,0.0000000,0.0868281,0.0000000,0.0000000,0.0106144,0.0000000,0.0000000,0.0000000,0.0868281,0.0000000,0.0000000,0.0106144
18.1168070,1.0001501,,-0.9473858,-0.3200672,-0.0000793,0.0041468,-0.0033760,0.0041309,0.0055300,,,,3.3230560,-9.8629770,-24.5297356,0.0000000,0.0000000,0.0000000,0.0200030,0.8274143,0.0000000,0.0000000,0.0870404,0.0000000,0.0000000,0.0000000,0.8274143,0.0000000,0.0000000,0.0870404,0.0000000,0.0000000,0.0000000,0.8274143,0.0000000,0.0000000,0.0870404,0.0870404,0.0000000,0.0000000,0.0106144,0.0000000,0.0000000,0.0000000,0.0870404,0.0000000,0.0000000,0.0106144,0.0000000,0.0000000,0.0000000,0.0870404,0.0000000,0.0000000,0.0106144
18.1369100,1.0004500,,-0.9473858,-0.3200672,-0.0000766,0.0041546,-0.0057697,0.0001276,0.0076326,,,,3.3230560,-9.8629770,-24.5297356,0.0000000,0.0000000,0.0000000,0.0200090,0.8308975,0.0000000,0.0000000,0.0872528,0.0000000,0.0000000,0.0000000,0.8308975,0.0000000,0.0000000,0.0872528,0.0000000,0.0000000,0.0000000,0.8308975,0.0000000,0.0000000,0.0872528,0.0872528,0.0000000,0.0000000,0.0106144,0.0000000,0.0000000,0.0000000,0.0872528,0.0000000,0.0000000,0.0106144,0.0000000,0.0000000,0.0000000,0.0872528,0.0000000,0.0000000,0.0106144
18.1542600,,1.0199701,-0.9473858,-0.3200672,-0.0000766,0.0041546,,,,0.0000000,0.0000000,0.0000000,3.3230560,-9.8629770,-24.5297356,0.0000000,0.0000000,0.0000000,0.1019970,0.8068480,0.0000000,0.0000000,0.0847274,0.0000000,0.0000000,0.0000000,0.8068480,0.0000000,0.0000000,0.0847274,0.0000000,0.0000000,0.0000000,0.8068480,0.0000000,0.0000000,0.0847274,0.0847274,0.0000000,0.0000000,0.0103492,0.0000000,0.0000000,0.0000000,0.0847274,0.0000000,0.0000000,0.0103492,0.0000000,0.0000000,0.0000000,0.0847274,0.0000000,0.0000000,0.0103492
18.1677970,1.0996000,,-0.9473858,-0.3200672,-0.0000642,0.0041439,-0.0032740,0.0025052,0.0042893,,,,3.3230560,-9.8629770,-24.5297356,0.0000000,0.0000000,0.0000000,0.0219920,0.8105747,0.0000000,0.0000000,0.0849550,0.0000000,0.0000000,0.0000000,0.8105747,0.0000000,0.0000000,0.0849550,0.0000000,0.0000000,0.0000000,0.8105747,0.0000000,0.0000000,0.0849550,0.0849550,0.0000000,0.0000000,0.0103492,0.0000000,0.0000000,0.0000000,0.0849550,0.0000000,0.0000000,0.0103492,0.0000000,0.0000000,0.0000000,0.0849550,0.0000000,0.0000000,0.0103492
18.1811650,1.0998001,,-0.9473858,-0.3200672,-0.0000720,0.0041269,-0.0044904,0.0009779,0.0048149,,,,3.3230560,-9.8629770,-24.5297356,0.0000000,0.0000000,0.0000000,0.0219960,0.8143120,0.0000000,0.0000000,0.0851826,0.0000000,0.0000000,0.0000000,0.8143120,0.0000000,0.0000000,0.0851826,0.0000000,0.0000000,0.0000000,0.8143120,0.0000000,0.0000000,0.0851826,0.0851826,0.0000000,0.0000000,0.0103492,0.0000000,0.0000000,0.0000000,0.0851826,0.0000000,0.0000000,0.0103492,0.0000000,0.0000000,0.0000000,0.0851826,0.0000000,0.0000000,0.0103492
18.2009410,1.0004500,,-0.9473859,-0.3200673,-0.0000805,0.0041135,-0.0024207,-0.0000451,0.0023922,,,,3.3230560,-9.8629770,-24.5297356,0.0000000,0.0000000,0.0000000,0.0200090,0.8177208,0.0000000,0.0000000,0.0853897,0.0000000,0.0000000,0.0000000,0.8177208,0.0000000,0.0000000,0.0853897,0.0000000,0.0000000,0.0000000,0.8177208,0.0000000,0.0000000,0.0853897,0.0853897,0.0000000,0.0000000,0.0103492,0.0000000,0.0000000,0.0000000,0.0853897,0.0000000,0.0000000,0.0103492,0.0000000,0.0000000,0.0000000,0.0853897,0.0000000,0.0000000,0.0103492
18.2209370,0.9995500,,-0.9473860,-0.3200673,-0.0000803,0.0040981,-0.0018588,0.0013813,-0.0000399,,,,3.3230560,-9.8629770,-24.5297356,0.0000000,0.0000000,0.0000000,0.0199910,0.8211349,0.0000000,0.0000000,0.0855966,0.0000000,0.0000000,0.0000000,0.8211349,0.0000000,0.0000000,0.0855966,0.0000000,0.0000000,0.0000000,0.8211349,0.0000000,0.0000000,0.0855966,0.0855966,0.0000000,0.0000000,0.0103492,0.0000000,0.0000000,0.0000000,0.0855966,0.0000000,0.0000000,0.0103492,0.0000000,0.0000000,0.0000000,0.0855966,0.0000000,0.0000000,0.0103492
18.2431120,,1.0000401,-0.9473861,-0.3200673,-0.0000735,0.0040674,,,,0.0000000,0.0000000,0.0000000,3.3230560,-9.8629770,-24.5297356,0.0000000,0.0000000,0.0000000,0.1000040,0.7976393,0.0000000,0.0000000,0.0831474,0.0000000,0.0000000,0.0000000,0.7976393,0.0000000,0.0000000,0.0831474,0.0000000,0.0000000,0.0000000,0.7976393,0.0000000,0.0000000,0.0831474,0.0831474,0.0000000,0.0000000,0.0100939,0.0000000,0.0000000,0.0000000,0.0831474,0.0000000,0.0000000,0.0100939,0.0000000,0.0000000,0.0000000,0.0831474,0.0000000,0.0000000,0.0100939
18.2573470,1.0504000,,-0.9473861,-0.3200673,-0.0000735,0.0040674,0.0040678,0.0040094,-0.0034532,,,,3.3230560,-9.8629770,-24.5297356,0.0000000,0.0000000,0.0000000,0.0210080,0.8011328,0.0000000,0.0000000,0.0833594,0.0000000,0.0000000,0.0000000,0.8011328,0.0000000,0.0000000,0.0833594,0.0000000,0.0000000,0.0000000,0.8011328,0.0000000,0.0000000,0.0833594,0.0833594,0.0000000,0.0000000,0.0100939,0.0000000,0.0000000,0.0000000,0.0833594,0.0000000,0.0000000,0.0100939,0.0000000,0.0000000,0.0000000,0.0833594,0.0000000,0.0000000,0.0100939
18.2707780,1.4496000,,-0.9473861,-0.3200674,-0.0000965,0.0040433,-0.0008271,0.0065137,0.0041175,,,,3.3230560,-9.8629770,-24.5297356,0.0000000,0.0000000,0.0000000,0.0289920,0.8059663,0.0000000,0.0000000,0.0836521,0.0000000,0.0000000,0.0000000,0.8059663,0.0000000,0.0000000,0.0836521,0.0000000,0.0000000,0.0000000,0.8059663,0.0000000,0.0000000,0.0836521,0.0836521,0.0000000,0.0000000,0.0100939,0.0000000,0.0000000,0.0000000,0.0836521,0.0000000,0.0000000,0.0100939,0.0000000,0.0000000,0.0000000,0.0836521,0.0000000,0.0000000,0.0100939
18.2918700,1.0501001,,-0.9473861,-0.3200676,-0.0001343,0.0040180,0.0013260,0.0045462,0.0025318,,,,3.3230560,-9.8629770,-24.5297356,0.0000000,0.0000000,0.0000000,0.0210020,0.8094800,0.0000000,0.0000000,0.0838641,0.0000000,0.0000000,0.0000000,0.8094800,0.0000000,0.0000000,0.0838641,0.0000000,0.0000000,0.0000000,0.8094800,0.0000000,0.0000000,0.0838641,0.0838641,0.0000000,0.0000000,0.0100939,0.0000000,0.0000000,0.0000000,0.0838641,0.0000000,0.0000000,0.0100939,0.0000000,0.0000000,0.0000000,0.0838641,0.0000000,0.0000000,0.0100939
18.3131460,1.0500000,,-0.9473861,-0.3200677,-0.0001542,0.0040095,-0.0073708,-0.0015569,0.0002741,,,,3.3230560,-9.8629770,-24.5297356,0.0000000,0.0000000,0.0000000,0.0210000,0.8130023,0.0000000,0.0000000,0.0840760,0.0000000,0.0000000,0.0000000,0.8130023,0.0000000,0.0000000,0.0840760,0.0000000,0.0000000,0.0000000,0.8130023,0.0000000,0.0000000,0.0840760,0.0840760,0.0000000,0.0000000,0.0100939,0.0000000,0.0000000,0.0000000,0.0840760,0.0000000,0.0000000,0.0100939,0.0000000,0.0000000,0.0000000,0.0840760,0.0000000,0.0000000,0.0100939
18.3329980,0.9999500,,-0.9473862,-0.3200678,-0.0001800,0.0039891,0.0002209,0.0021894,0.0006101,,,,3.3230560,-9.8629770,-24.5297356,0.0000000,0.0000000,0.0000000,0.0199990,0.8163652,0.0000000,0.0000000,0.0842779,0.0000000,0.0000000,0.0000000,0.8163652,0.0000000,0.0000000,0.0842779,0.0000000,0.0000000,0.0000000,0.8163652,0.0000000,0.0000000,0.0842779,0.0842779,0.0000000,0.0000000,0.0100939,0.0000000,0.0000000,0.0000000,0.0842779,0.0000000,0.0000000,0.0100939,0.0000000,0.0000000,0.0000000,0.0842779,0.0000000,0.0000000,0.0100939
18.3487100,,1.0199400,-0.9473862,-0.3200678,-0.0001800,0.0039891,,,,0.0000000,0.0000000,0.0000000,3.3230560,-9.8629770,-24.5297356,0.0000000,0.0000000,0.0000000,0.1019940,0.7931379,0.0000000,0.0000000,0.0818800,0.0000000,0.0000000,0.0000000,0.7931379,0.0000000,0.0000000,0.0818800,0.0000000,0.0000000,0.0000000,0.7931379,0.0000000,0.0000000,0.0818800,0.0818800,0.0000000,0.0000000,0.0098464,0.0000000,0.0000000,0.0000000,0.0818800,0.0000000,0.0000000,0.0098464,0.0000000,0.0000000,0.0000000,0.0818800,0.0000000,0.0000000,0.0098464
18.3626250,1.0000501,,-0.9473861,-0.3200679,-0.0001930,0.0039970,0.0003469,0.0021399,0.0027312,,,,3.3230560,-9.8629770,-24.5297356,0.0000000,0.0000000,0.0000000,0.0200010,0.7964132,0.0000000,0.0000000,0.0820770,0.0000000,0.0000000,0.0000000,0.7964132,0.0000000,0.0000000,0.0820770,0.0000000,0.0000000,0.0000000,0.7964132,0.0000000,0.0000000,0.0820770,0.0820770,0.0000000,0.0000000,0.0098464,0.0000000,0.0000000,0.0000000,0.0820770,0.0000000,0.0000000,0.0098464,0.0000000,0.0000000,0.0000000,0.0820770,0.0000000,0.0000000,0.0098464
18.3757790,1.1499000,,-0.9473863,-0.3200679,-0.0001888,0.0039783,0.0009288,0.0028095,0.0047683,,,,3.3230560,-9.8629770,-24.5297356,0.0000000,0.0000000,0.0000000,0.0229980,0.8001885,0.0000000,0.0000000,0.0823034,0.0000000,0.0000000,0.0000000,0.8001885,0.0000000,0.0000000,0.0823034,0.0000000,0.0000000,0.0000000,0.8001885,0.0000000,0.0000000,0.0823034,0.0823034,0.0000000,0.0000000,0.0098464,0.0000000,0.0000000,0.0000000,0.0823034,0.0000000,0.0000000,0.0098464,0.0000000,0.0000000,0.0000000,0.0823034,0.0000000,0.0000000,0.0098464
18.3968510,1.0501001,,-0.9473863,-0.3200678,-0.0001552,0.0039798,-0.0040980,0.0012369,-0.0010491,,,,3.3230560,-9.8629770,-24.5297356,0.0000000,0.0000000,0.0000000,0.0210020,0.8036456,0.0000000,0.0000000,0.0825102,0.0000000,0.0000000,0.0000000,0.8036456,0.0000000,0.0000000,0.0825102,0.0000000,0.0000000,0.0000000,0.8036456,0.0000000,0.0000000,0.0825102,0.0825102,0.0000000,0.0000000,0.0098464,0.0000000,0.0000000,0.0000000,0.0825102,0.0000000,0.0000000,0.0098464,0.0000000,0.0000000,0.0000000,0.0825102,0.0000000,0.0000000,0.0098464
18.4181130,1.0499500,,-0.9473863,-0.3200677,-0.0001359,0.0039884,-0.0005079,0.0041280,0.0033665,,,,3.3230560,-9.8629770,-24.5297356,0.0000000,0.0000000,0.0000000,0.0209990,0.8071108,0.0000000,0.0000000,0.0827170,0.0000000,0.0000000,0.0000000,0.8071108,0.0000000,0.0000000,0.0827170,0.0000000,0.0000000,0.0000000,0.8071108,0.0000000,0.0000000,0.0827170,0.0827170,0.0000000,0.0000000,0.0098464,0.0000000,0.0000000,0.0000000,0.0827170,0.0000000,0.0000000,0.0098464,0.0000000,0.0000000,0.0000000,0.0827170,0.0000000,0.0000000,0.0098464
18.4379580,0.9999500,,-0.9473863,-0.3200676,-0.0001256,0.0039981,0.0042169,-0.0000341,0.0024004,,,,3.3230560,-9.8629770,-24.5297356,0.0000000,0.0000000,0.0000000,0.0199990,0.8104193,0.0000000,0.0000000,0.0829139,0.0000000,0.0000000,0.0000000,0.8104193,0.0000000,0.0000000,0.0829139,0.0000000,0.0000000,0.0000000,0.8104193,0.0000000,0.0000000,0.0829139,0.0829139,0.0000000,0.0000000,0.0098464,0.0000000,0.0000000,0.0000000,0.0829139,0.0000000,0.0000000,0.0098464,0.0000000,0.0000000,0.0000000,0.0829139,0.0000000,0.0000000,0.0098464
18.4536830,,1.0200300,-0.9473863,-0.3200676,-0.0001256,0.0039981,,,,0.0000000,0.0000000,0.0000000,3.3230560,-9.8629770,-24.5297356,0.0000000,0.0000000,0.0000000,0.1020030,0.7875243,0.0000000,0.0000000,0.0805715,0.0000000,0.0000000,0.0000000,0.7875243,0.0000000,0.0000000,0.0805715,0.0000000,0.0000000,0.0000000,0.7875243,0.0000000,0.0000000,0.0805715,0.0805715,0.0000000,0.0000000,0.0096068,0.0000000,0.0000000,0.0000000,0.0805715,0.0000000,0.0000000,0.0096068,0.0000000,0.0000000,0.0000000,0.0805715,0.0000000,0.0000000,0.0096068
18.4676040,1.0000501,,-0.9473864,-0.3200676,-0.0001089,0.0039691,-0.0004550,0.0029584,-0.0007682,,,,3.3230560,-9.8629770,-24.5297356,0.0000000,0.0000000,0.0000000,0.0200010,0.7907473,0.0000000,0.0000000,0.0807636,0.0000000,0.0000000,0.0000000,0.7907473,0.0000000,0.0000000,0.0807636,0.0000000,0.0000000,0.0000000,0.7907473,0.0000000,0.0000000,0.0807636,0.0807636,0.0000000,0.0000000,0.0096068,0.0000000,0.0000000,0.0000000,0.0807636,0.0000000,0.0000000,0.0096068,0.0000000,0.0000000,0.0000000,0.0807636,0.0000000,0.0000000,0.0096068
18.4807980,1.1499500,,-0.9473865,-0.3200677,-0.0001082,0.0039258,0.0025801,0.0092764,-0.0013683,,,,3.3230560,-9.8629770,-24.5297356,0.0000000,0.0000000,0.0000000,0.0229990,0.7944623,0.0000000,0.0000000,0.0809846,0.0000000,0.0000000,0.0000000,0.7944623,0.0000000,0.0000000,0.0809846,0.0000000,0.0000000,0.0000000,0.7944623,0.0000000,0.0000000,0.0809846,0.0809846,0.0000000,0.0000000,0.0096068,0.0000000,0.0000000,0.0000000,0.0809846,0.0000000,0.0000000,0.0096068,0.0000000,0.0000000,0.0000000,0.0809846,0.0000000,0.0000000,0.0096068
18.5019120,1.0501001,,-0.9473867,-0.3200678,-0.0001151,0.0038666,0.0053336,0.0094295,-0.0026449,,,,3.3230560,-9.8629770,-24.5297356,0.0000000,0.0000000,0.0000000,0.0210020,0.7978640,0.0000000,0.0000000,0.0811864,0.0000000,0.0000000,0.0000000,0.7978640,0.0000000,0.0000000,0.0811864,0.0000000,0.0000000,0.0000000,0.7978640,0.0000000,0.0000000,0.0811864,0.0811864,0.0000000,0.0000000,0.0096068,0.0000000,0.0000000,0.0000000,0.0811864,0.0000000,0.0000000,0.0096068,0.0000000,0.0000000,0.0000000,0.0811864,0.0000000,0.0000000,0.0096068
18.5231130,1.0500000,,-0.9473869,-0.3200679,-0.0001316,0.0038371,0.0022853,0.0021742,0.0025762,,,,3.3230560,-9.8629770,-24.5297356,0.0000000,0.0000000,0.0000000,0.0210000,0.8012738,0.0000000,0.0000000,0.0813881,0.0000000,0.0000000,0.0000000,0.8012738,0.0000000,0.0000000,0.0813881,0.0000000,0.0000000,0.0000000,0.8012738,0.0000000,0.0000000,0.0813881,0.0813881,0.0000000,0.0000000,0.0096068,0.0000000,0.0000000,0.0000000,0.0813881,0.0000000,0.0000000,0.0096068,0.0000000,0.0000000,0.0000000,0.0813881,0.0000000,0.0000000,0.0096068
18.5429230,0.9999000,,-0.9473870,-0.3200679,-0.0001384,0.0037976,-0.0014132,-0.0019876,0.0022570,,,,3.3230560,-9.8629770,-24.5297356,0.0000000,0.0000000,0.0000000,0.0199980,0.8045290,0.0000000,0.0000000,0.0815802,0.0000000,0.0000000,0.0000000,0.8045290,0.0000000,0.0000000,0.0815802,0.0000000,0.0000000,0.0000000,0.8045290,0.0000000,0.0000000,0.0815802,0.0815802,0.0000000,0.0000000,0.0096068,0.0000000,0.0000000,0.0000000,0.0815802,0.0000000,0.0000000,0.0096068,0.0000000,0.0000000,0.0000000,0.0815802,0.0000000,0.0000000,0.0096068
18.5586840,,0.9999800,-0.9473870,-0.3200679,-0.0001384,0.0037976,,,,0.0000000,0.0000000,0.0000000,3.3230560,-9.8629770,-24.5297356,0.0000000,0.0000000,0.0000000,0.0999980,0.7819611,0.0000000,0.0000000,0.0792918,0.0000000,0.0000000,0.0000000,0.7819611,0.0000000,0.0000000,0.0792918,0.0000000,0.0000000,0.0000000,0.7819611,0.0000000,0.0000000,0.0792918,0.0792918,0.0000000,0.0000000,0.0093747,0.0000000,0.0000000,0.0000000,0.0792918,0.0000000,0.0000000,0.0093747,0.0000000,0.0000000,0.0000000,0.0792918,0.0000000,0.0000000,0.0093747
18.5725820,1.0000000,,-0.9473870,-0.3200680,-0.0001485,0.0037804,0.0035582,0.0017909,0.0040506,,,,3.3230560,-9.8629770,-24.5297356,0.0000000,0.0000000,0.0000000,0.0200000,0.7851328,0.0000000,0.0000000,0.0794793,0.0000000,0.0000000,0.0000000,0.7851328,0.0000000,0.0000000,0.0794793,0.0000000,0.0000000,0.0000000,0.7851328,0.0000000,0.0000000,0.0794793,0.0794793,0.0000000,0.0000000,0.0093747,0.0000000,0.0000000,0.0000000,0.0794793,0.0000000,0.0000000,0.0093747,0.0000000,0.0000000,0.0000000,0.0794793,0.0000000,0.0000000,0.0093747
18.5857740,1.1500000,,-0.9473871,-0.3200681,-0.0001501,0.0037535,0.0026412,0.0060911,-0.0021327,,,,3.3230560,-9.8629770,-24.5297356,0.0000000,0.0000000,0.0000000,0.0230000,0.7887888,0.0000000,0.0000000,0.0796949,0.0000000,0.0000000,0.0000000,0.7887888,0.0000000,0.0000000,0.0796949,0.0000000,0.0000000,0.0000000,0.7887888,0.0000000,0.0000000,0.0796949,0.0796949,0.0000000,0.0000000,0.0093748,0.0000000,0.0000000,0.0000000,0.0796949,0.0000000,0.0000000,0.0093748,0.0000000,0.0000000,0.0000000,0.0796949,0.0000000,0.0000000,0.0093748
18.6068160,1.0501001,,-0.9473871,-0.3200681,-0.0001566,0.0037514,-0.0032036,-0.0029740,0.0003908,,,,3.3230560,-9.8629770,-24.5297356,0.0000000,0.0000000,0.0000000,0.0210020,0.7921363,0.0000000,0.0000000,0.0798918,0.0000000,0.0000000,0.0000000,0.7921363,0.0000000,0.0000000,0.0798918,0.0000000,0.0000000,0.0000000,0.7921363,0.0000000,0.0000000,0.0798918,0.0798918,0.0000000,0.0000000,0.0093748,0.0000000,0.0000000,0.0000000,0.0798918,0.0000000,0.0000000,0.0093748,0.0000000,0.0000000,0.0000000,0.0798918,0.0000000,0.0000000,0.0093748
18.6281330,1.0499500,,-0.9473871,-0.3200681,-0.0001639,0.0037512,0.0002140,-0.0048211,-0.0015212,,,,3.3230560,-9.8629770,-24.5297356,0.0000000,0.0000000,0.0000000,0.0209990,0.7954916,0.0000000,0.0000000,0.0800887,0.0000000,0.0000000,0.0000000,0.7954916,0.0000000,0.0000000,0.0800887,0.0000000,0.0000000,0.0000000,0.7954916,0.0000000,0.0000000,0.0800887,0.0800887,0.0000000,0.0000000,0.0093748,0.0000000,0.0000000,0.0000000,0.0800887,0.0000000,0.0000000,0.0093748,0.0000000,0.0000000,0.0000000,0.0800887,0.0000000,0.0000000,0.0093748
18.6470710,,0.9999900,-0.9473871,-0.3200681,-0.0001471,0.0037477,,,,0.0000000,0.0000000,0.0000000,3.3230560,-9.8629770,-24.5297356,0.0000000,0.0000000,0.0000000,0.0999990,0.7734209,0.0000000,0.0000000,0.0778666,0.0000000,0.0000000,0.0000000,0.7734209,0.0000000,0.0000000,0.0778666,0.0000000,0.0000000,0.0000000,0.7734209,0.0000000,0.0000000,0.0778666,0.0778666,0.0000000,0.0000000,0.0091510,0.0000000,0.0000000,0.0000000,0.0778666,0.0000000,0.0000000,0.0091510,0.0000000,0.0000000,0.0000000,0.0778666,0.0000000,0.0000000,0.0091510
18.6607650,1.0000501,,-0.9473871,-0.3200681,-0.0001471,0.0037477,-0.0041426,0.0025638,-0.0005241,,,,3.3230560,-9.8629770,-24.5297356,0.0000000,0.0000000,0.0000000,0.0200010,0.7765357,0.0000000,0.0000000,0.0780496,0.0000000,0.0000000,0.0000000,0.7765357,0.0000000,0.0000000,0.0780496,0.0000000,0.0000000,0.0000000,0.7765357,0.0000000,0.0000000,0.0780496,0.0780496,0.0000000,0.0000000,0.0091511,0.0000000,0.0000000,0.0000000,0.0780496,0.0000000,0.0000000,0.0091511,0.0000000,0.0000000,0.0000000,0.0780496,0.0000000,0.0000000,0.0091511
18.6738840,1.3000001,,-0.9473871,-0.3200681,-0.0001448,0.0037530,-0.0016974,0.0055315,0.0058338,,,,3.3230560,-9.8629770,-24.5297356,0.0000000,0.0000000,0.0000000,0.0260000,0.7805943,0.0000000,0.0000000,0.0782876,0.0000000,0.0000000,0.0000000,0.7805943,0.0000000,0.0000000,0.0782876,0.0000000,0.0000000,0.0000000,0.7805943,0.0000000,0.0000000,0.0782876,0.0782876,0.0000000,0.0000000,0.0091511,0.0000000,0.0000000,0.0000000,0.0782876,0.0000000,0.0000000,0.0091511,0.0000000,0.0000000,0.0000000,0.0782876,0.0000000,0.0000000,0.0091511
18.6948510,1.0503500,,-0.9473871,-0.3200681,-0.0001571,0.0037602,-0.0019702,0.0065270,0.0085245,,,,3.3230560,-9.8629770,-24.5297356,0.0000000,0.0000000,0.0000000,0.0210070,0.7838835,0.0000000,0.0000000,0.0784798,0.0000000,0.0000000,0.0000000,0.7838835,0.0000000,0.0000000,0.0784798,0.0000000,0.0000000,0.0000000,0.7838835,0.0000000,0.0000000,0.0784798,0.0784798,0.0000000,0.0000000,0.0091511,0.0000000,0.0000000,0.0000000,0.0784798,0.0000000,0.0000000,0.0091511,0.0000000,0.0000000,0.0000000,0.0784798,0.0000000,0.0000000,0.0091511
18.7151420,0.9996500,,-0.9473871,-0.3200680,-0.0001463,0.0037708,-0.0015878,0.0050946,0.0057195,,,,3.3230560,-9.8629770,-24.5297356,0.0000000,0.0000000,0.0000000,0.0199930,0.7870215,0.0000000,0.0000000,0.0786628,0.0000000,0.0000000,0.0000000,0.7870215,0.0000000,0.0000000,0.0786628,0.0000000,0.0000000,0.0000000,0.7870215,0.0000000,0.0000000,0.0786628,0.0786628,0.0000000,0.0000000,0.0091511,0.0000000,0.0000000,0.0000000,0.0786628,0.0000000,0.0000000,0.0091511,0.0000000,0.0000000,0.0000000,0.0786628,0.0000000,0.0000000,0.0091511
18.7348680,1.0002999,,-0.9473870,-0.3200680,-0.0001375,0.0037953,0.0012813,0.0046606,0.0133502,,,,3.3230560,-9.8629770,-24.5297356,0.0000000,0.0000000,0.0000000,0.0200060,0.7901690,0.0000000,0.0000000,0.0788458,0.0000000,0.0000000,0.0000000,0.7901690,0.0000000,0.0000000,0.0788458,0.0000000,0.0000000,0.0000000,0.7901690,0.0000000,0.0000000,0.0788458,0.0788458,0.0000000,0.0000000,0.0091511,0.0000000,0.0000000,0.0000000,0.0788458,0.0000000,0.0000000,0.0091511,0.0000000,0.0000000,0.0000000,0.0788458,0.0000000,0.0000000,0.0091511
18.7509440,,1.0000199,-0.9473870,-0.3200680,-0.0001375,0.0037953,,,,0.0000000,0.0000000,0.0000000,3.3230560,-9.8629770,-24.5297356,0.0000000,0.0000000,0.0000000,0.1000020,0.7683886,0.0000000,0.0000000,0.0766725,0.0000000,0.0000000,0.0000000,0.7683886,0.0000000,0.0000000,0.0766725,0.0000000,0.0000000,0.0000000,0.7683886,0.0000000,0.0000000,0.0766725,0.0766725,0.0000000,0.0000000,0.0089342,0.0000000,0.0000000,0.0000000,0.0766725,0.0000000,0.0000000,0.0089342,0.0000000,0.0000000,0.0000000,0.0766725,0.0000000,0.0000000,0.0089342
18.7645850,1.0000000,,-0.9473870,-0.3200680,-0.0001410,0.0037950,0.0053937,0.0063739,0.0064233,,,,3.3230560,-9.8629770,-24.5297356,0.0000000,0.0000000,0.0000000,0.0200000,0.7714555,0.0000000,0.0000000,0.0768512,0.0000000,0.0000000,0.0000000,0.7714555,0.0000000,0.0000000,0.0768512,0.0000000,0.0000000,0.0000000,0.7714555,0.0000000,0.0000000,0.0768512,0.0768512,0.0000000,0.0000000,0.0089342,0.0000000,0.0000000,0.0000000,0.0768512,0.0000000,0.0000000,0.0089342,0.0000000,0.0000000,0.0000000,0.0768512,0.0000000,0.0000000,0.0089342
18.7776790,1.1496000,,-0.9473871,-0.3200681,-0.0001451,0.0037667,0.0013617,-0.0003989,0.0039364,,,,3.3230560,-9.8629770,-24.5297356,0.0000000,0.0000000,0.0000000,0.0229920,0.7749894,0.0000000,0.0000000,0.0770566,0.0000000,0.0000000,0.0000000,0.7749894,0.0000000,0.0000000,0.0770566,0.0000000,0.0000000,0.0000000,0.7749894,0.0000000,0.0000000,0.0770566,0.0770566,0.0000000,0.0000000,0.0089342,0.0000000,0.0000000,0.0000000,0.0770566,0.0000000,0.0000000,0.0089342,0.0000000,0.0000000,0.0000000,0.0770566,0.0000000,0.0000000,0.0089342
18.7988090,1.0502001,,-0.9473872,-0.3200681,-0.0001470,0.0037419,0.0010623,0.0008382,0.0051344,,,,3.3230560,-9.8629770,-24.5297356,0.0000000,0.0000000,0.0000000,0.0210040,0.7782264,0.0000000,0.0000000,0.0772443,0.0000000,0.0000000,0.0000000,0.7782264,0.0000000,0.0000000,0.0772443,0.0000000,0.0000000,0.0000000,0.7782264,0.0000000,0.0000000,0.0772443,0.0772443,0.0000000,0.0000000,0.0089342,0.0000000,0.0000000,0.0000000,0.0772443,0.0000000,0.0000000,0.0089342,0.0000000,0.0000000,0.0000000,0.0772443,0.0000000,0.0000000,0.0089342
18.8201640,1.0502501,,-0.9473872,-0.3200681,-0.0001346,0.0037230,0.0006990,-0.0017248,-0.0018349,,,,3.3230560,-9.8629770,-24.5297356,0.0000000,0.0000000,0.0000000,0.0210050,0.7814714,0.0000000,0.0000000,0.0774319,0.0000000,0.0000000,0.0000000,0.7814714,0.0000000,0.0000000,0.0774319,0.0000000,0.0000000,0.0000000,0.7814714,0.0000000,0.0000000,0.0774319,0.0774319,0.0000000,0.0000000,0.0089342,0.0000000,0.0000000,0.0000000,0.0774319,0.0000000,0.0000000,0.0089342,0.0000000,0.0000000,0.0000000,0.0774319,0.0000000,0.0000000,0.0089342
18.8399040,0.9999000,,-0.9473872,-0.3200680,-0.0001205,0.0037391,0.0032029,-0.0046618,-0.0092259,,,,3.3230560,-9.8629770,-24.5297356,0.0000000,0.0000000,0.0000000,0.0199980,0.7845684,0.0000000,0.0000000,0.0776106,0.0000000,0.0000000,0.0000000,0.7845684,0.0000000,0.0000000,0.0776106,0.0000000,0.0000000,0.0000000,0.7845684,0.0000000,0.0000000,0.0776106,0.0776106,0.0000000,0.0000000,0.0089342,0.0000000,0.0000000,0.0000000,0.0776106,0.0000000,0.0000000,0.0089342,0.0000000,0.0000000,0.0000000,0.0776106,0.0000000,0.0000000,0.0089342
18.8559220,,1.0000000,-0.9473872,-0.3200680,-0.0001205,0.0037391,,,,0.0000000,0.0000000,0.0000000,3.3230560,-9.8629770,-24.5297356,0.0000000,0.0000000,0.0000000,0.1000000,0.7630914,0.0000000,0.0000000,0.0754861,0.0000000,0.0000000,0.0000000,0.7630914,0.0000000,0.0000000,0.0754861,0.0000000,0.0000000,0.0000000,0.7630914,0.0000000,0.0000000,0.0754861,0.0754861,0.0000000,0.0000000,0.0087241,0.0000000,0.0000000,0.0000000,0.0754861,0.0000000,0.0000000,0.0087241,0.0000000,0.0000000,0.0000000,0.0754861,0.0000000,0.0000000,0.0087241
18.8695560,1.0000501,,-0.9473872,-0.3200680,-0.0001279,0.0037410,0.0054085,-0.0012628,-0.0019350,,,,3.3230560,-9.8629770,-24.5297356,0.0000000,0.0000000,0.0000000,0.0200010,0.7661110,0.0000000,0.0000000,0.0756606,0.0000000,0.0000000,0.0000000,0.7661110,0.0000000,0.0000000,0.0756606,0.0000000,0.0000000,0.0000000,0.7661110,0.0000000,0.0000000,0.0756606,0.0756606,0.0000000,0.0000000,0.0087241,0.0000000,0.0000000,0.0000000,0.0756606,0.0000000,0.0000000,0.0087241,0.0000000,0.0000000,0.0000000,0.0756606,0.0000000,0.0000000,0.0087241
18.8826720,1.1496000,,-0.9473872,-0.3200681,-0.0001417,0.0037251,0.0040623,0.0021076,0.0053725,,,,3.3230560,-9.8629770,-24.5297356,0.0000000,0.0000000,0.0000000,0.0229920,0.7695901,0.0000000,0.0000000,0.0758611,0.0000000,0.0000000,0.0000000,0.7695901,0.0000000,0.0000000,0.0758611,0.0000000,0.0000000,0.0000000,0.7695901,0.0000000,0.0000000,0.0758611,0.0758611,0.0000000,0.0000000,0.0087241,0.0000000,0.0000000,0.0000000,0.0758611,0.0000000,0.0000000,0.0087241,0.0000000,0.0000000,0.0000000,0.0758611,0.0000000,0.0000000,0.0087241
18.9038230,1.0502001,,-0.9473872,-0.3200682,-0.0001730,0.0037128,0.0013903,0.0049829,0.0053642,,,,3.3230560,-9.8629770,-24.5297356,0.0000000,0.0000000,0.0000000,0.0210040,0.7727769,0.0000000,0.0000000,0.0760444,0.0000000,0.0000000,0.0000000,0.7727769,0.0000000,0.0000000,0.0760444,0.0000000,0.0000000,0.0000000,0.7727769,0.0000000,0.0000000,0.0760444,0.0760444,0.0000000,0.0000000,0.0087241,0.0000000,0.0000000,0.0000000,0.0760444,0.0000000,0.0000000,0.0087241,0.0000000,0.0000000,0.0000000,0.0760444,0.0000000,0.0000000,0.0087241
18.9251780,1.0498999,,-0.9473873,-0.3200682,-0.0001489,0.0036922,-0.0052329,0.0054440,0.0058483,,,,3.3230560,-9.8629770,-24.5297356,0.0000000,0.0000000,0.0000000,0.0209980,0.7759705,0.0000000,0.0000000,0.0762276,0.0000000,0.0000000,0.0000000,0.7759705,0.0000000,0.0000000,0.0762276,0.0000000,0.0000000,0.0000000,0.7759705,0.0000000,0.0000000,0.0762276,0.0762276,0.0000000,0.0000000,0.0087241,0.0000000,0.0000000,0.0000000,0.0762276,0.0000000,0.0000000,0.0087241,0.0000000,0.0000000,0.0000000,0.0762276,0.0000000,0.0000000,0.0087241
18.9470560,,0.9999700,-0.9473874,-0.3200681,-0.0001228,0.0036775,,,,0.0000000,0.0000000,0.0000000,3.3230560,-9.8629770,-24.5297356,0.0000000,0.0000000,0.0000000,0.0999970,0.7549554,0.0000000,0.0000000,0.0741631,0.0000000,0.0000000,0.0000000,0.7549554,0.0000000,0.0000000,0.0741631,0.0000000,0.0000000,0.0000000,0.7549554,0.0000000,0.0000000,0.0741631,0.0741631,0.0000000,0.0000000,0.0085213,0.0000000,0.0000000,0.0000000,0.0741631,0.0000000,0.0000000,0.0085213,0.0000000,0.0000000,0.0000000,0.0741631,0.0000000,0.0000000,0.0085213
18.9606750,1.0504000,,-0.9473874,-0.3200681,-0.0001228,0.0036775,-0.0002132,-0.0031145,-0.0005015,,,,3.3230560,-9.8629770,-24.5297356,0.0000000,0.0000000,0.0000000,0.0210080,0.7580714,0.0000000,0.0000000,0.0743422,0.0000000,0.0000000,0.0000000,0.7580714,0.0000000,0.0000000,0.0743422,0.0000000,0.0000000,0.0000000,0.7580714,0.0000000,0.0000000,0.0743422,0.0743422,0.0000000,0.0000000,0.0085213,0.0000000,0.0000000,0.0000000,0.0743422,0.0000000,0.0000000,0.0085213,0.0000000,0.0000000,0.0000000,0.0743422,0.0000000,0.0000000,0.0085213
18.9740140,1.3999500,,-0.9473875,-0.3200681,-0.0001007,0.0036509,-0.0006025,0.0057594,0.0026713,,,,3.3230560,-9.8629770,-24.5297356,0.0000000,0.0000000,0.0000000,0.0279990,0.7622344,0.0000000,0.0000000,0.0745808,0.0000000,0.0000000,0.0000000,0.7622344,0.0000000,0.0000000,0.0745808,0.0000000,0.0000000,0.0000000,0.7622344,0.0000000,0.0000000,0.0745808,0.0745808,0.0000000,0.0000000,0.0085213,0.0000000,0.0000000,0.0000000,0.0745808,0.0000000,0.0000000,0.0085213,0.0000000,0.0000000,0.0000000,0.0745808,0.0000000,0.0000000,0.0085213
18.9940880,0.9999500,,-0.9473876,-0.3200680,-0.0000778,0.0036365,0.0023996,0.0048328,0.0015722,,,,3.3230560,-9.8629770,-24.5297356,0.0000000,0.0000000,0.0000000,0.0199990,0.7652175,0.0000000,0.0000000,0.0747512,0.0000000,0.0000000,0.0000000,0.7652175,0.0000000,0.0000000,0.0747512,0.0000000,0.0000000,0.0000000,0.7652175,0.0000000,0.0000000,0.0747512,0.0747512,0.0000000,0.0000000,0.0085213,0.0000000,0.0000000,0.0000000,0.0747512,0.0000000,0.0000000,0.0085213,0.0000000,0.0000000,0.0000000,0.0747512,0.0000000,0.0000000,0.0085213
19.0139920,0.9998000,,-0.9473876,-0.3200681,-0.0000868,0.0036239,0.0050831,0.0026377,0.0017550,,,,3.3230560,-9.8629770,-24.5297356,0.0000000,0.0000000,0.0000000,0.0199960,0.7682070,0.0000000,0.0000000,0.0749216,0.0000000,0.0000000,0.0000000,0.7682070,0.0000000,0.0000000,0.0749216,0.0000000,0.0000000,0.0000000,0.7682070,0.0000000,0.0000000,0.0749216,0.0749216,0.0000000,0.0000000,0.0085213,0.0000000,0.0000000,0.0000000,0.0749216,0.0000000,0.0000000,0.0085213,0.0000000,0.0000000,0.0000000,0.0749216,0.0000000,0.0000000,0.0085213
19.0339730,1.0002999,,-0.9473876,-0.3200681,-0.0000849,0.0036275,-0.0023565,0.0040044,-0.0023039,,,,3.3230560,-9.8629770,-24.5297356,0.0000000,0.0000000,0.0000000,0.0200060,0.7712047,0.0000000,0.0000000,0.0750920,0.0000000,0.0000000,0.0000000,0.7712047,0.0000000,0.0000000,0.0750920,0.0000000,0.0000000,0.0000000,0.7712047,0.0000000,0.0000000,0.0750920,0.0750920,0.0000000,0.0000000,0.0085213,0.0000000,0.0000000,0.0000000,0.0750920,0.0000000,0.0000000,0.0085213,0.0000000,0.0000000,0.0000000,0.0750920,0.0000000,0.0000000,0.0085213
19.0497820,,1.0001000,-0.9473876,-0.3200681,-0.0000849,0.0036275,,,,0.0000000,0.0000000,0.0000000,3.3230560,-9.8629770,-24.5297356,0.0000000,0.0000000,0.0000000,0.1000100,0.7504435,0.0000000,0.0000000,0.0730705,0.0000000,0.0000000,0.0000000,0.7504435,0.0000000,0.0000000,0.0730705,0.0000000,0.0000000,0.0000000,0.7504435,0.0000000,0.0000000,0.0730705,0.0730705,0.0000000,0.0000000,0.0083245,0.0000000,0.0000000,0.0000000,0.0730705,0.0000000,0.0000000,0.0083245,0.0000000,0.0000000,0.0000000,0.0730705,0.0000000,0.0000000,0.0083245
19.0633230,1.0000000,,-0.9473876,-0.3200680,-0.0000748,0.0036333,-0.0019107,0.0042147,0.0022584,,,,3.3230560,-9.8629770,-24.5297356,0.0000000,0.0000000,0.0000000,0.0200000,0.7533663,0.0000000,0.0000000,0.0732370,0.0000000,0.0000000,0.0000000,0.7533663,0.0000000,0.0000000,0.0732370,0.0000000,0.0000000,0.0000000,0.7533663,0.0000000,0.0000000,0.0732370,0.0732370,0.0000000,0.0000000,0.0083245,0.0000000,0.0000000,0.0000000,0.0732370,0.0000000,0.0000000,0.0083245,0.0000000,0.0000000,0.0000000,0.0732370,0.0000000,0.0000000,0.0083245
19.0767930,1.1495000,,-0.9473877,-0.3200681,-0.0000824,0.0036018,0.0031951,0.0069291,0.0069809,,,,3.3230560,-9.8629770,-24.5297356,0.0000000,0.0000000,0.0000000,0.0229900,0.7567337,0.0000000,0.0000000,0.0734284,0.0000000,0.0000000,0.0000000,0.7567337,0.0000000,0.0000000,0.0734284,0.0000000,0.0000000,0.0000000,0.7567337,0.0000000,0.0000000,0.0734284,0.0734284,0.0000000,0.0000000,0.0083245,0.0000000,0.0000000,0.0000000,0.0734284,0.0000000,0.0000000,0.0083245,0.0000000,0.0000000,0.0000000,0.0734284,0.0000000,0.0000000,0.0083245
19.0970000,1.0000501,,-0.9473879,-0.3200682,-0.0000827,0.0035345,-0.0005616,0.0077065,0.0000649,,,,3.3230560,-9.8629770,-24.5297356,0.0000000,0.0000000,0.0000000,0.0200010,0.7596710,0.0000000,0.0000000,0.0735949,0.0000000,0.0000000,0.0000000,0.7596710,0.0000000,0.0000000,0.0735949,0.0000000,0.0000000,0.0000000,0.7596710,0.0000000,0.0000000,0.0735949,0.0735949,0.0000000,0.0000000,0.0083245,0.0000000,0.0000000,0.0000000,0.0735949,0.0000000,0.0000000,0.0083245,0.0000000,0.0000000,0.0000000,0.0735949,0.0000000,0.0000000,0.0083245
19.1179220,1.0504500,,-0.9473881,-0.3200683,-0.0000947,0.0034773,0.0039001,0.0073094,0.0019779,,,,3.3230560,-9.8629770,-24.5297356,0.0000000,0.0000000,0.0000000,0.0210090,0.7627633,0.0000000,0.0000000,0.0737698,0.0000000,0.0000000,0.0000000,0.7627633,0.0000000,0.0000000,0.0737698,0.0000000,0.0000000,0.0000000,0.7627633,0.0000000,0.0000000,0.0737698,0.0737698,0.0000000,0.0000000,0.0083245,0.0000000,0.0000000,0.0000000,0.0737698,0.0000000,0.0000000,0.0083245,0.0000000,0.0000000,0.0000000,0.0737698,0.0000000,0.0000000,0.0083245
19.1381600,0.9995000,,-0.9473882,-0.3200683,-0.0000907,0.0034554,-0.0023987,0.0007784,0.0058641,,,,3.3230560,-9.8629770,-24.5297356,0.0000000,0.0000000,0.0000000,0.0199900,0.7657126,0.0000000,0.0000000,0.0739362,0.0000000,0.0000000,0.0000000,0.7657126,0.0000000,0.0000000,0.0739362,0.0000000,0.0000000,0.0000000,0.7657126,0.0000000,0.0000000,0.0739362,0.0739362,0.0000000,0.0000000,0.0083245,0.0000000,0.0000000,0.0000000,0.0739362,0.0000000,0.0000000,0.0083245,0.0000000,0.0000000,0.0000000,0.0739362,0.0000000,0.0000000,0.0083245
19.1547850,,0.9999100,-0.9473882,-0.3200683,-0.0000907,0.0034269,,,,0.0000000,0.0000000,0.0000000,3.3230560,-9.8629770,-24.5297356,0.0000000,0.0000000,0.0000000,0.0999910,0.7452421,0.0000000,0.0000000,0.0719596,0.0000000,0.0000000,0.0000000,0.7452421,0.0000000,0.0000000,0.0719596,0.0000000,0.0000000,0.0000000,0.7452421,0.0000000,0.0000000,0.0719596,0.0719596,0.0000000,0.0000000,0.0081336,0.0000000,0.0000000,0.0000000,0.0719596,0.0000000,0.0000000,0.0081336,0.0000000,0.0000000,0.0000000,0.0719596,0.0000000,0.0000000,0.0081336
19.1683450,1.0003500,,-0.9473883,-0.3200684,-0.0001023,0.0034269,-0.0058075,0.0028459,0.0039010,,,,3.3230560,-9.8629770,-24.5297356,0.0000000,0.0000000,0.0000000,0.0200070,0.7481214,0.0000000,0.0000000,0.0721223,0.0000000,0.0000000,0.0000000,0.7481214,0.0000000,0.0000000,0.0721223,0.0000000,0.0000000,0.0000000,0.7481214,0.0000000,0.0000000,0.0721223,0.0721223,0.0000000,0.0000000,0.0081336,0.0000000,0.0000000,0.0000000,0.0721223,0.0000000,0.0000000,0.0081336,0.0000000,0.0000000,0.0000000,0.0721223,0.0000000,0.0000000,0.0081336
19.1818030,1.1996500,,-0.9473883,-0.3200683,-0.0000904,0.0034264,0.0025207,0.0014763,0.0029194,,,,3.3230560,-9.8629770,-24.5297356,0.0000000,0.0000000,0.0000000,0.0239930,0.7515823,0.0000000,0.0000000,0.0723175,0.0000000,0.0000000,0.0000000,0.7515823,0.0000000,0.0000000,0.0723175,0.0000000,0.0000000,0.0000000,0.7515823,0.0000000,0.0000000,0.0723175,0.0723175,0.0000000,0.0000000,0.0081336,0.0000000,0.0000000,0.0000000,0.0723175,0.0000000,0.0000000,0.0081336,0.0000000,0.0000000,0.0000000,0.0723175,0.0000000,0.0000000,0.0081336
19.2019660,1.0001000,,-0.9473884,-0.3200683,-0.0000738,0.0034092,0.0018326,0.0041790,0.0019404,,,,3.3230560,-9.8629770,-24.5297356,0.0000000,0.0000000,0.0000000,0.0200020,0.7544753,0.0000000,0.0000000,0.0724802,0.0000000,0.0000000,0.0000000,0.7544753,0.0000000,0.0000000,0.0724802,0.0000000,0.0000000,0.0000000,0.7544753,0.0000000,0.0000000,0.0724802,0.0724801,0.0000000,0.0000000,0.0081336,0.0000000,0.0000000,0.0000000,0.0724801,0.0000000,0.0000000,0.0081336,0.0000000,0.0000000,0.0000000,0.0724801,0.0000000,0.0000000,0.0081336
19.2229950,1.0504500,,-0.9473883,-0.3200683,-0.0000721,0.0034161,0.0036629,0.0014105,0.0016950,,,,3.3230560,-9.8629770,-24.5297356,0.0000000,0.0000000,0.0000000,0.0210090,0.7575208,0.0000000,0.0000000,0.0726510,0.0000000,0.0000000,0.0000000,0.7575208,0.0000000,0.0000000,0.0726510,0.0000000,0.0000000,0.0000000,0.7575208,0.0000000,0.0000000,0.0726510,0.0726510,0.0000000,0.0000000,0.0081336,0.0000000,0.0000000,0.0000000,0.0726510,0.0000000,0.0000000,0.0081336,0.0000000,0.0000000,0.0000000,0.0726510,0.0000000,0.0000000,0.0081336
19.2431150,0.9994500,,-0.9473883,-0.3200684,-0.0001011,0.0034157,0.0035480,0.0078082,-0.0001367,,,,3.3230560,-9.8629770,-24.5297356,0.0000000,0.0000000,0.0000000,0.0199890,0.7604252,0.0000000,0.0000000,0.0728136,0.0000000,0.0000000,0.0000000,0.7604252,0.0000000,0.0000000,0.0728136,0.0000000,0.0000000,0.0000000,0.7604252,0.0000000,0.0000000,0.0728136,0.0728136,0.0000000,0.0000000,0.0081336,0.0000000,0.0000000,0.0000000,0.0728136,0.0000000,0.0000000,0.0081336,0.0000000,0.0000000,0.0000000,0.0728136,0.0000000,0.0000000,0.0081336
19.2597660,,1.0000199,-0.9473883,-0.3200684,-0.0001011,0.0034208,,,,0.0000000,0.0000000,0.0000000,3.3230560,-9.8629770,-24.5297356,0.0000000,0.0000000,0.0000000,0.1000020,0.7402327,0.0000000,0.0000000,0.0708801,0.0000000,0.0000000,0.0000000,0.7402327,0.0000000,0.0000000,0.0708801,0.0000000,0.0000000,0.0000000,0.7402327,0.0000000,0.0000000,0.0708801,0.0708801,0.0000000,0.0000000,0.0079485,0.0000000,0.0000000,0.0000000,0.0708801,0.0000000,0.0000000,0.0079485,0.0000000,0.0000000,0.0000000,0.0708801,0.0000000,0.0000000,0.0079485
19.2733240,1.0004500,,-0.9473883,-0.3200684,-0.0001081,0.0034208,0.0020334,0.0071161,-0.0015408,,,,3.3230560,-9.8629770,-24.5297356,0.0000000,0.0000000,0.0000000,0.0200090,0.7430692,0.0000000,0.0000000,0.0710392,0.0000000,0.0000000,0.0000000,0.7430692,0.0000000,0.0000000,0.0710392,0.0000000,0.0000000,0.0000000,0.7430692,0.0000000,0.0000000,0.0710392,0.0710391,0.0000000,0.0000000,0.0079485,0.0000000,0.0000000,0.0000000,0.0710391,0.0000000,0.0000000,0.0079485,0.0000000,0.0000000,0.0000000,0.0710391,0.0000000,0.0000000,0.0079485
19.2869110,1.1995500,,-0.9473882,-0.3200684,-0.0001059,0.0034452,0.0090886,-0.0029498,-0.0007780,,,,3.3230560,-9.8629770,-24.5297356,0.0000000,0.0000000,0.0000000,0.0239910,0.7464778,0.0000000,0.0000000,0.0712298,0.0000000,0.0000000,0.0000000,0.7464778,0.0000000,0.0000000,0.0712298,0.0000000,0.0000000,0.0000000,0.7464778,0.0000000,0.0000000,0.0712298,0.0712298,0.0000000,0.0000000,0.0079485,0.0000000,0.0000000,0.0000000,0.0712298,0.0000000,0.0000000,0.0079485,0.0000000,0.0000000,0.0000000,0.0712298,0.0000000,0.0000000,0.0079485
19.3069390,1.0001000,,-0.9473881,-0.3200684,-0.0001272,0.0034580,0.0115939,-0.0006738,0.0010682,,,,3.3230560,-9.8629770,-24.5297356,0.0000000,0.0000000,0.0000000,0.0200020,0.7493272,0.0000000,0.0000000,0.0713888,0.0000000,0.0000000,0.0000000,0.7493272,0.0000000,0.0000000,0.0713888,0.0000000,0.0000000,0.0000000,0.7493272,0.0000000,0.0000000,0.0713888,0.0713888,0.0000000,0.0000000,0.0079485,0.0000000,0.0000000,0.0000000,0.0713888,0.0000000,0.0000000,0.0079485,0.0000000,0.0000000,0.0000000,0.0713888,0.0000000,0.0000000,0.0079485
19.3279740,1.0504000,,-0.9473882,-0.3200684,-0.0000979,0.0034359,0.0063539,-0.0032208,0.0054093,,,,3.3230560,-9.8629770,-24.5297356,0.0000000,0.0000000,0.0000000,0.0210080,0.7523267,0.0000000,0.0000000,0.0715558,0.0000000,0.0000000,0.0000000,0.7523267,0.0000000,0.0000000,0.0715558,0.0000000,0.0000000,0.0000000,0.7523267,0.0000000,0.0000000,0.0715558,0.0715558,0.0000000,0.0000000,0.0079485,0.0000000,0.0000000,0.0000000,0.0715558,0.0000000,0.0000000,0.0079485,0.0000000,0.0000000,0.0000000,0.0715558,0.0000000,0.0000000,0.0079485
19.3470130,,0.9999700,-0.9473882,-0.3200683,-0.0000869,0.0034297,,,,0.0000000,0.0000000,0.0000000,3.3230560,-9.8629770,-24.5297356,0.0000000,0.0000000,0.0000000,0.0999970,0.7325565,0.0000000,0.0000000,0.0696754,0.0000000,0.0000000,0.0000000,0.7325565,0.0000000,0.0000000,0.0696754,0.0000000,0.0000000,0.0000000,0.7325565,0.0000000,0.0000000,0.0696754,0.0696754,0.0000000,0.0000000,0.0077697,0.0000000,0.0000000,0.0000000,0.0696754,0.0000000,0.0000000,0.0077697,0.0000000,0.0000000,0.0000000,0.0696754,0.0000000,0.0000000,0.0077697
19.3606060,0.9999500,,-0.9473882,-0.3200683,-0.0000869,0.0034297,0.0054276,0.0001443,0.0029412,,,,3.3230560,-9.8629770,-24.5297356,0.0000000,0.0000000,0.0000000,0.0199990,0.7353433,0.0000000,0.0000000,0.0698308,0.0000000,0.0000000,0.0000000,0.7353433,0.0000000,0.0000000,0.0698308,0.0000000,0.0000000,0.0000000,0.7353433,0.0000000,0.0000000,0.0698308,0.0698308,0.0000000,0.0000000,0.0077697,0.0000000,0.0000000,0.0000000,0.0698308,0.0000000,0.0000000,0.0077697,0.0000000,0.0000000,0.0000000,0.0698308,0.0000000,0.0000000,0.0077697
19.3738490,1.2999500,,-0.9473884,-0.3200683,-0.0000686,0.0034017,-0.0054878,-0.0050471,0.0026836,,,,3.3230560,-9.8629770,-24.5297356,0.0000000,0.0000000,0.0000000,0.0259990,0.7389744,0.0000000,0.0000000,0.0700328,0.0000000,0.0000000,0.0000000,0.7389744,0.0000000,0.0000000,0.0700328,0.0000000,0.0000000,0.0000000,0.7389744,0.0000000,0.0000000,0.0700328,0.0700328,0.0000000,0.0000000,0.0077697,0.0000000,0.0000000,0.0000000,0.0700328,0.0000000,0.0000000,0.0077697,0.0000000,0.0000000,0.0000000,0.0700328,0.0000000,0.0000000,0.0077697
19.3949240,1.0501001,,-0.9473884,-0.3200682,-0.0000449,0.0033827,-0.0079853,-0.0054456,-0.0020838,,,,3.3230560,-9.8629770,-24.5297356,0.0000000,0.0000000,0.0000000,0.0210020,0.7419161,0.0000000,0.0000000,0.0701960,0.0000000,0.0000000,0.0000000,0.7419161,0.0000000,0.0000000,0.0701960,0.0000000,0.0000000,0.0000000,0.7419161,0.0000000,0.0000000,0.0701960,0.0701960,0.0000000,0.0000000,0.0077697,0.0000000,0.0000000,0.0000000,0.0701960,0.0000000,0.0000000,0.0077697,0.0000000,0.0000000,0.0000000,0.0701960,0.0000000,0.0000000,0.0077697
19.4151520,0.9996500,,-0.9473885,-0.3200682,-0.0000319,0.0033742,-0.0026422,-0.0073462,0.0004153,,,,3.3230560,-9.8629770,-24.5297356,0.0000000,0.0000000,0.0000000,0.0199930,0.7447229,0.0000000,0.0000000,0.0703513,0.0000000,0.0000000,0.0000000,0.7447229,0.0000000,0.0000000,0.0703513,0.0000000,0.0000000,0.0000000,0.7447229,0.0000000,0.0000000,0.0703513,0.0703513,0.0000000,0.0000000,0.0077697,0.0000000,0.0000000,0.0000000,0.0703513,0.0000000,0.0000000,0.0077697,0.0000000,0.0000000,0.0000000,0.0703513,0.0000000,0.0000000,0.0077697
19.4351520,1.0002000,,-0.9473885,-0.3200682,-0.0000101,0.0033649,-0.0084851,-0.0065875,-0.0017531,,,,3.3230560,-9.8629770,-24.5297356,0.0000000,0.0000000,0.0000000,0.0200040,0.7475375,0.0000000,0.0000000,0.0705067,0.0000000,0.0000000,0.0000000,0.7475375,0.0000000,0.0000000,0.0705067,0.0000000,0.0000000,0.0000000,0.7475375,0.0000000,0.0000000,0.0705067,0.0705067,0.0000000,0.0000000,0.0077697,0.0000000,0.0000000,0.0000000,0.0705067,0.0000000,0.0000000,0.0077697,0.0000000,0.0000000,0.0000000,0.0705067,0.0000000,0.0000000,0.0077697
19.4507920,,1.0000299,-0.9473885,-0.3200682,-0.0000101,0.0033649,,,,0.0000000,0.0000000,0.0000000,3.3230560,-9.8629770,-24.5297356,0.0000000,0.0000000,0.0000000,0.1000030,0.7280148,0.0000000,0.0000000,0.0686654,0.0000000,0.0000000,0.0000000,0.7280148,0.0000000,0.0000000,0.0686654,0.0000000,0.0000000,0.0000000,0.7280148,0.0000000,0.0000000,0.0686654,0.0686654,0.0000000,0.0000000,0.0075960,0.0000000,0.0000000,0.0000000,0.0686654,0.0000000,0.0000000,0.0075960,0.0000000,0.0000000,0.0000000,0.0686654,0.0000000,0.0000000,0.0075960
19.4646280,0.9999500,,-0.9473886,-0.3200682,0.0000009,0.0033534,-0.0089575,-0.0030496,0.0032662,,,,3.3230560,-9.8629770,-24.5297356,0.0000000,0.0000000,0.0000000,0.0199990,0.7307613,0.0000000,0.0000000,0.0688173,0.0000000,0.0000000,0.0000000,0.7307613,0.0000000,0.0000000,0.0688173,0.0000000,0.0000000,0.0000000,0.7307613,0.0000000,0.0000000,0.0688173,0.0688173,0.0000000,0.0000000,0.0075960,0.0000000,0.0000000,0.0000000,0.0688173,0.0000000,0.0000000,0.0075960,0.0000000,0.0000000,0.0000000,0.0688173,0.0000000,0.0000000,0.0075960
19.4777140,1.1497000,,-0.9473886,-0.3200681,0.0000171,0.0033547,-0.0020984,0.0002071,0.0089497,,,,3.3230560,-9.8629770,-24.5297356,0.0000000,0.0000000,0.0000000,0.0229940,0.7339261,0.0000000,0.0000000,0.0689920,0.0000000,0.0000000,0.0000000,0.7339261,0.0000000,0.0000000,0.0689920,0.0000000,0.0000000,0.0000000,0.7339261,0.0000000,0.0000000,0.0689920,0.0689920,0.0000000,0.0000000,0.0075960,0.0000000,0.0000000,0.0000000,0.0689920,0.0000000,0.0000000,0.0075960,0.0000000,0.0000000,0.0000000,0.0689920,0.0000000,0.0000000,0.0075960
19.4977680,1.0001501,,-0.9473886,-0.3200681,0.0000370,0.0033609,-0.0018274,-0.0001025,-0.0021246,,,,3.3230560,-9.8629770,-24.5297356,0.0000000,0.0000000,0.0000000,0.0200030,0.7366862,0.0000000,0.0000000,0.0691439,0.0000000,0.0000000,0.0000000,0.7366862,0.0000000,0.0000000,0.0691439,0.0000000,0.0000000,0.0000000,0.7366862,0.0000000,0.0000000,0.0691439,0.0691439,0.0000000,0.0000000,0.0075960,0.0000000,0.0000000,0.0000000,0.0691439,0.0000000,0.0000000,0.0075960,0.0000000,0.0000000,0.0000000,0.0691439,0.0000000,0.0000000,0.0075960
19.5190300,1.0506001,,-0.9473886,-0.3200680,0.0000519,0.0033485,-0.0019131,0.0019172,0.0021039,,,,3.3230560,-9.8629770,-24.5297356,0.0000000,0.0000000,0.0000000,0.0210120,0.7395919,0.0000000,0.0000000,0.0693035,0.0000000,0.0000000,0.0000000,0.7395919,0.0000000,0.0000000,0.0693035,0.0000000,0.0000000,0.0000000,0.7395919,0.0000000,0.0000000,0.0693035,0.0693035,0.0000000,0.0000000,0.0075960,0.0000000,0.0000000,0.0000000,0.0693035,0.0000000,0.0000000,0.0075960,0.0000000,0.0000000,0.0000000,0.0693035,0.0000000,0.0000000,0.0075960
19.5391250,0.9998000,,-0.9473886,-0.3200679,0.0000730,0.0033419,-0.0012007,0.0009815,0.0027533,,,,3.3230560,-9.8629770,-24.5297356,0.0000000,0.0000000,0.0000000,0.0199960,0.7423635,0.0000000,0.0000000,0.0694554,0.0000000,0.0000000,0.0000000,0.7423635,0.0000000,0.0000000,0.0694554,0.0000000,0.0000000,0.0000000,0.7423635,0.0000000,0.0000000,0.0694554,0.0694554,0.0000000,0.0000000,0.0075960,0.0000000,0.0000000,0.0000000,0.0694554,0.0000000,0.0000000,0.0075960,0.0000000,0.0000000,0.0000000,0.0694554,0.0000000,0.0000000,0.0075960
19.5561040,,1.0199800,-0.9473886,-0.3200679,0.0000730,0.0033252,,,,0.0000000,0.0000000,0.0000000,3.3230560,-9.8629770,-24.5297356,0.0000000,0.0000000,0.0000000,0.1019980,0.7231066,0.0000000,0.0000000,0.0676537,0.0000000,0.0000000,0.0000000,0.7231066,0.0000000,0.0000000,0.0676537,0.0000000,0.0000000,0.0000000,0.7231066,0.0000000,0.0000000,0.0676537,0.0676537,0.0000000,0.0000000,0.0074275,0.0000000,0.0000000,0.0000000,0.0676537,0.0000000,0.0000000,0.0074275,0.0000000,0.0000000,0.0000000,0.0676537,0.0000000,0.0000000,0.0074275
19.5698890,1.0000000,,-0.9473887,-0.3200680,0.0000684,0.0033252,-0.0020805,0.0026727,-0.0018048,,,,3.3230560,-9.8629770,-24.5297356,0.0000000,0.0000000,0.0000000,0.0200000,0.7258128,0.0000000,0.0000000,0.0678023,0.0000000,0.0000000,0.0000000,0.7258128,0.0000000,0.0000000,0.0678023,0.0000000,0.0000000,0.0000000,0.7258128,0.0000000,0.0000000,0.0678023,0.0678023,0.0000000,0.0000000,0.0074275,0.0000000,0.0000000,0.0000000,0.0678023,0.0000000,0.0000000,0.0074275,0.0000000,0.0000000,0.0000000,0.0678023,0.0000000,0.0000000,0.0074275
19.5826780,1.1995000,,-0.9473888,-0.3200681,0.0000280,0.0033071,0.0025380,0.0085996,-0.0016425,,,,3.3230560,-9.8629770,-24.5297356,0.0000000,0.0000000,0.0000000,0.0239900,0.7290660,0.0000000,0.0000000,0.0679805,0.0000000,0.0000000,0.0000000,0.7290660,0.0000000,0.0000000,0.0679805,0.0000000,0.0000000,0.0000000,0.7290660,0.0000000,0.0000000,0.0679805,0.0679805,0.0000000,0.0000000,0.0074275,0.0000000,0.0000000,0.0000000,0.0679805,0.0000000,0.0000000,0.0074275,0.0000000,0.0000000,0.0000000,0.0679805,0.0000000,0.0000000,0.0074275
19.6027820,1.0001000,,-0.9473888,-0.3200682,0.0000189,0.0032866,-0.0061086,0.0093504,-0.0049792,,,,3.3230560,-9.8629770,-24.5297356,0.0000000,0.0000000,0.0000000,0.0200020,0.7317854,0.0000000,0.0000000,0.0681290,0.0000000,0.0000000,0.0000000,0.7317854,0.0000000,0.0000000,0.0681290,0.0000000,0.0000000,0.0000000,0.7317854,0.0000000,0.0000000,0.0681290,0.0681290,0.0000000,0.0000000,0.0074275,0.0000000,0.0000000,0.0000000,0.0681290,0.0000000,0.0000000,0.0074275,0.0000000,0.0000000,0.0000000,0.0681290,0.0000000,0.0000000,0.0074275
19.6240420,1.0506001,,-0.9473889,-0.3200682,0.0000149,0.0032585,-0.0055415,0.0067657,0.0055594,,,,3.3230560,-9.8629770,-24.5297356,0.0000000,0.0000000,0.0000000,0.0210120,0.7346485,0.0000000,0.0000000,0.0682851,0.0000000,0.0000000,0.0000000,0.7346485,0.0000000,0.0000000,0.0682851,0.0000000,0.0000000,0.0000000,0.7346485,0.0000000,0.0000000,0.0682851,0.0682851,0.0000000,0.0000000,0.0074275,0.0000000,0.0000000,0.0000000,0.0682851,0.0000000,0.0000000,0.0074275,0.0000000,0.0000000,0.0000000,0.0682851,0.0000000,0.0000000,0.0074275
19.6440150,0.9997500,,-0.9473890,-0.3200683,0.0000131,0.0032339,-0.0023206,0.0086242,0.0054576,,,,3.3230560,-9.8629770,-24.5297356,0.0000000,0.0000000,0.0000000,0.0199950,0.7373792,0.0000000,0.0000000,0.0684336,0.0000000,0.0000000,0.0000000,0.7373792,0.0000000,0.0000000,0.0684336,0.0000000,0.0000000,0.0000000,0.7373792,0.0000000,0.0000000,0.0684336,0.0684336,0.0000000,0.0000000,0.0074275,0.0000000,0.0000000,0.0000000,0.0684336,0.0000000,0.0000000,0.0074275,0.0000000,0.0000000,0.0000000,0.0684336,0.0000000,0.0000000,0.0074275
19.6597280,,1.0000100,-0.9473890,-0.3200683,0.0000131,0.0032339,,,,0.0000000,0.0000000,0.0000000,3.3230560,-9.8629770,-24.5297356,0.0000000,0.0000000,0.0000000,0.1000010,0.7183768,0.0000000,0.0000000,0.0666701,0.0000000,0.0000000,0.0000000,0.7183768,0.0000000,0.0000000,0.0666701,0.0000000,0.0000000,0.0000000,0.7183768,0.0000000,0.0000000,0.0666701,0.0666701,0.0000000,0.0000000,0.0072638,0.0000000,0.0000000,0.0000000,0.0666701,0.0000000,0.0000000,0.0072638,0.0000000,0.0000000,0.0000000,0.0666701,0.0000000,0.0000000,0.0072638
19.6735880,0.9999500,,-0.9473891,-0.3200683,0.0000193,0.0032069,-0.0065467,0.0022064,0.0027212,,,,3.3230560,-9.8629770,-24.5297356,0.0000000,0.0000000,0.0000000,0.0199990,0.7210435,0.0000000,0.0000000,0.0668153,0.0000000,0.0000000,0.0000000,0.7210435,0.0000000,0.0000000,0.0668153,0.0000000,0.0000000,0.0000000,0.7210435,0.0000000,0.0000000,0.0668153,0.0668153,0.0000000,0.0000000,0.0072638,0.0000000,0.0000000,0.0000000,0.0668153,0.0000000,0.0000000,0.0072638,0.0000000,0.0000000,0.0000000,0.0668153,0.0000000,0.0000000,0.0072638
19.6866510,1.1495500,,-0.9473891,-0.3200683,0.0000096,0.0031893,-0.0050205,0.0048416,0.0001323,,,,3.3230560,-9.8629770,-24.5297356,0.0000000,0.0000000,0.0000000,0.0229910,0.7241158,0.0000000,0.0000000,0.0669823,0.0000000,0.0000000,0.0000000,0.7241158,0.0000000,0.0000000,0.0669823,0.0000000,0.0000000,0.0000000,0.7241158,0.0000000,0.0000000,0.0669823,0.0669823,0.0000000,0.0000000,0.0072638,0.0000000,0.0000000,0.0000000,0.0669823,0.0000000,0.0000000,0.0072638,0.0000000,0.0000000,0.0000000,0.0669823,0.0000000,0.0000000,0.0072638
19.7079650,1.0509000,,-0.9473892,-0.3200684,-0.0000001,0.0031454,-0.0049745,0.0056023,0.0081151,,,,3.3230560,-9.8629770,-24.5297356,0.0000000,0.0000000,0.0000000,0.0210180,0.7269315,0.0000000,0.0000000,0.0671350,0.0000000,0.0000000,0.0000000,0.7269315,0.0000000,0.0000000,0.0671350,0.0000000,0.0000000,0.0000000,0.7269315,0.0000000,0.0000000,0.0671350,0.0671350,0.0000000,0.0000000,0.0072638,0.0000000,0.0000000,0.0000000,0.0671350,0.0000000,0.0000000,0.0072638,0.0000000,0.0000000,0.0000000,0.0671350,0.0000000,0.0000000,0.0072638
19.7280490,0.9991001,,-0.9473892,-0.3200684,0.0000031,0.0031294,-0.0022508,-0.0020588,0.0052706,,,,3.3230560,-9.8629770,-24.5297356,0.0000000,0.0000000,0.0000000,0.0199820,0.7296144,0.0000000,0.0000000,0.0672802,0.0000000,0.0000000,0.0000000,0.7296144,0.0000000,0.0000000,0.0672802,0.0000000,0.0000000,0.0000000,0.7296144,0.0000000,0.0000000,0.0672802,0.0672802,0.0000000,0.0000000,0.0072638,0.0000000,0.0000000,0.0000000,0.0672802,0.0000000,0.0000000,0.0072638,0.0000000,0.0000000,0.0000000,0.0672802,0.0000000,0.0000000,0.0072638
19.7498710,,1.0100399,-0.9473892,-0.3200684,-0.0000024,0.0031457,,,,0.0000000,0.0000000,0.0000000,3.3230560,-9.8629770,-24.5297356,0.0000000,0.0000000,0.0000000,0.1010040,0.7110050,0.0000000,0.0000000,0.0655641,0.0000000,0.0000000,0.0000000,0.7110050,0.0000000,0.0000000,0.0655641,0.0000000,0.0000000,0.0000000,0.7110050,0.0000000,0.0000000,0.0655641,0.0655641,0.0000000,0.0000000,0.0071056,0.0000000,0.0000000,0.0000000,0.0655641,0.0000000,0.0000000,0.0071056,0.0000000,0.0000000,0.0000000,0.0655641,0.0000000,0.0000000,0.0071056
19.7636240,1.1001501,,-0.9473892,-0.3200684,-0.0000024,0.0031457,0.0015220,0.0005041,0.0021394,,,,3.3230560,-9.8629770,-24.5297356,0.0000000,0.0000000,0.0000000,0.0220030,0.7138903,0.0000000,0.0000000,0.0657205,0.0000000,0.0000000,0.0000000,0.7138903,0.0000000,0.0000000,0.0657205,0.0000000,0.0000000,0.0000000,0.7138903,0.0000000,0.0000000,0.0657205,0.0657205,0.0000000,0.0000000,0.0071056,0.0000000,0.0000000,0.0000000,0.0657205,0.0000000,0.0000000,0.0071056,0.0000000,0.0000000,0.0000000,0.0657205,0.0000000,0.0000000,0.0071056
19.7771130,1.3498501,,-0.9473891,-0.3200684,-0.0000082,0.0031570,0.0051098,-0.0030972,0.0078980,,,,3.3230560,-9.8629770,-24.5297356,0.0000000,0.0000000,0.0000000,0.0269970,0.7174388,0.0000000,0.0000000,0.0659123,0.0000000,0.0000000,0.0000000,0.7174388,0.0000000,0.0000000,0.0659123,0.0000000,0.0000000,0.0000000,0.7174388,0.0000000,0.0000000,0.0659123,0.0659123,0.0000000,0.0000000,0.0071056,0.0000000,0.0000000,0.0000000,0.0659123,0.0000000,0.0000000,0.0071056,0.0000000,0.0000000,0.0000000,0.0659123,0.0000000,0.0000000,0.0071056
19.7968130,1.0000000,,-0.9473892,-0.3200683,0.0000221,0.0031555,0.0028219,0.0056077,0.0044297,,,,3.3230560,-9.8629770,-24.5297356,0.0000000,0.0000000,0.0000000,0.0200000,0.7200752,0.0000000,0.0000000,0.0660544,0.0000000,0.0000000,0.0000000,0.7200752,0.0000000,0.0000000,0.0660544,0.0000000,0.0000000,0.0000000,0.7200752,0.0000000,0.0000000,0.0660544,0.0660544,0.0000000,0.0000000,0.0071056,0.0000000,0.0000000,0.0000000,0.0660544,0.0000000,0.0000000,0.0071056,0.0000000,0.0000000,0.0000000,0.0660544,0.0000000,0.0000000,0.0071056
19.8168960,1.0005500,,-0.9473892,-0.3200683,0.0000427,0.0031442,-0.0000157,0.0035973,0.0053810,,,,3.3230560,-9.8629770,-24.5297356,0.0000000,0.0000000,0.0000000,0.0200110,0.7227189,0.0000000,0.0000000,0.0661966,0.0000000,0.0000000,0.0000000,0.7227189,0.0000000,0.0000000,0.0661966,0.0000000,0.0000000,0.0000000,0.7227189,0.0000000,0.0000000,0.0661966,0.0661966,0.0000000,0.0000000,0.0071056,0.0000000,0.0000000,0.0000000,0.0661966,0.0000000,0.0000000,0.0071056,0.0000000,0.0000000,0.0000000,0.0661966,0.0000000,0.0000000,0.0071056
19.8377200,1.0496501,,-0.9473892,-0.3200684,0.0000210,0.0031465,0.0038679,0.0052700,0.0043919,,,,3.3230560,-9.8629770,-24.5297356,0.0000000,0.0000000,0.0000000,0.0209930,0.7254982,0.0000000,0.0000000,0.0663458,0.0000000,0.0000000,0.0000000,0.7254982,0.0000000,0.0000000,0.0663458,0.0000000,0.0000000,0.0000000,0.7254982,0.0000000,0.0000000,0.0663458,0.0663458,0.0000000,0.0000000,0.0071056,0.0000000,0.0000000,0.0000000,0.0663458,0.0000000,0.0000000,0.0071056,0.0000000,0.0000000,0.0000000,0.0663458,0.0000000,0.0000000,0.0071056
19.8536990,,1.0199499,-0.9473892,-0.3200684,0.0000210,0.0031465,,,,0.0000000,0.0000000,0.0000000,3.3230560,-9.8629770,-24.5297356,0.0000000,0.0000000,0.0000000,0.1019950,0.7070956,0.0000000,0.0000000,0.0646629,0.0000000,0.0000000,0.0000000,0.7070956,0.0000000,0.0000000,0.0646629,0.0000000,0.0000000,0.0000000,0.7070956,0.0000000,0.0000000,0.0646629,0.0646629,0.0000000,0.0000000,0.0069517,0.0000000,0.0000000,0.0000000,0.0646629,0.0000000,0.0000000,0.0069517,0.0000000,0.0000000,0.0000000,0.0646629,0.0000000,0.0000000,0.0069517
19.8672300,1.0999000,,-0.9473892,-0.3200684,0.0000210,0.0031634,0.0063132,-0.0067949,-0.0014738,,,,3.3230560,-9.8629770,-24.5297356,0.0000000,0.0000000,0.0000000,0.0219980,0.7099405,0.0000000,0.0000000,0.0648158,0.0000000,0.0000000,0.0000000,0.7099405,0.0000000,0.0000000,0.0648158,0.0000000,0.0000000,0.0000000,0.7099405,0.0000000,0.0000000,0.0648158,0.0648158,0.0000000,0.0000000,0.0069517,0.0000000,0.0000000,0.0000000,0.0648158,0.0000000,0.0000000,0.0069517,0.0000000,0.0000000,0.0000000,0.0648158,0.0000000,0.0000000,0.0069517
19.8806980,1.0499500,,-0.9473892,-0.3200683,0.0000258,0.0031657,0.0092525,0.0013251,-0.0039184,,,,3.3230560,-9.8629770,-24.5297356,0.0000000,0.0000000,0.0000000,0.0209990,0.7126626,0.0000000,0.0000000,0.0649618,0.0000000,0.0000000,0.0000000,0.7126626,0.0000000,0.0000000,0.0649618,0.0000000,0.0000000,0.0000000,0.7126626,0.0000000,0.0000000,0.0649618,0.0649618,0.0000000,0.0000000,0.0069517,0.0000000,0.0000000,0.0000000,0.0649618,0.0000000,0.0000000,0.0069517,0.0000000,0.0000000,0.0000000,0.0649618,0.0000000,0.0000000,0.0069517
19.9006390,1.0000000,,-0.9473891,-0.3200684,0.0000149,0.0031663,-0.0032168,0.0031803,-0.0005020,,,,3.3230560,-9.8629770,-24.5297356,0.0000000,0.0000000,0.0000000,0.0200000,0.7152611,0.0000000,0.0000000,0.0651008,0.0000000,0.0000000,0.0000000,0.7152611,0.0000000,0.0000000,0.0651008,0.0000000,0.0000000,0.0000000,0.7152611,0.0000000,0.0000000,0.0651008,0.0651008,0.0000000,0.0000000,0.0069517,0.0000000,0.0000000,0.0000000,0.0651008,0.0000000,0.0000000,0.0069517,0.0000000,0.0000000,0.0000000,0.0651008,0.0000000,0.0000000,0.0069517
19.9207080,1.0001501,,-0.9473891,-0.3200684,0.0000117,0.0031565,-0.0035768,0.0062898,0.0053566,,,,3.3230560,-9.8629770,-24.5297356,0.0000000,0.0000000,0.0000000,0.0200030,0.7178655,0.0000000,0.0000000,0.0652399,0.0000000,0.0000000,0.0000000,0.7178655,0.0000000,0.0000000,0.0652399,0.0000000,0.0000000,0.0000000,0.7178655,0.0000000,0.0000000,0.0652399,0.0652399,0.0000000,0.0000000,0.0069517,0.0000000,0.0000000,0.0000000,0.0652399,0.0000000,0.0000000,0.0069517,0.0000000,0.0000000,0.0000000,0.0652399,0.0000000,0.0000000,0.0069517
19.9419140,1.0498999,,-0.9473891,-0.3200684,0.0000072,0.0031555,-0.0062058,0.0058915,0.0007176,,,,3.3230560,-9.8629770,-24.5297356,0.0000000,0.0000000,0.0000000,0.0209980,0.7206053,0.0000000,0.0000000,0.0653858,0.0000000,0.0000000,0.0000000,0.7206053,0.0000000,0.0000000,0.0653858,0.0000000,0.0000000,0.0000000,0.7206053,0.0000000,0.0000000,0.0653858,0.0653858,0.0000000,0.0000000,0.0069517,0.0000000,0.0000000,0.0000000,0.0653858,0.0000000,0.0000000,0.0069517,0.0000000,0.0000000,0.0000000,0.0653858,0.0000000,0.0000000,0.0069517
19.9579290,,1.0000199,-0.9473891,-0.3200684,0.0000072,0.0031555,,,,0.0000000,0.0000000,0.0000000,3.3230560,-9.8629770,-24.5297356,0.0000000,0.0000000,0.0000000,0.1000020,0.7024469,0.0000000,0.0000000,0.0637382,0.0000000,0.0000000,0.0000000,0.7024469,0.0000000,0.0000000,0.0637382,0.0000000,0.0000000,0.0000000,0.7024469,0.0000000,0.0000000,0.0637382,0.0637382,0.0000000,0.0000000,0.0068022,0.0000000,0.0000000,0.0000000,0.0637382,0.0000000,0.0000000,0.0068022,0.0000000,0.0000000,0.0000000,0.0637382,0.0000000,0.0000000,0.0068022
19.9715320,1.1002001,,-0.9473892,-0.3200684,0.0000203,0.0031449,-0.0084664,0.0088585,0.0015719,,,,3.3230560,-9.8629770,-24.5297356,0.0000000,0.0000000,0.0000000,0.0220040,0.7052519,0.0000000,0.0000000,0.0638879,0.0000000,0.0000000,0.0000000,0.7052519,0.0000000,0.0000000,0.0638879,0.0000000,0.0000000,0.0000000,0.7052519,0.0000000,0.0000000,0.0638879,0.0638879,0.0000000,0.0000000,0.0068022,0.0000000,0.0000000,0.0000000,0.0638879,0.0000000,0.0000000,0.0068022,0.0000000,0.0000000,0.0000000,0.0638879,0.0000000,0.0000000,0.0068022
19.9850260,1.0502001,,-0.9473893,-0.3200684,0.0000344,0.0031180,-0.0083454,0.0103039,0.0024873,,,,3.3230560,-9.8629770,-24.5297356,0.0000000,0.0000000,0.0000000,0.0210040,0.7079358,0.0000000,0.0000000,0.0640307,0.0000000,0.0000000,0.0000000,0.7079358,0.0000000,0.0000000,0.0640307,0.0000000,0.0000000,0.0000000,0.7079358,0.0000000,0.0000000,0.0640307,0.0640307,0.0000000,0.0000000,0.0068022,0.0000000,0.0000000,0.0000000,0.0640307,0.0000000,0.0000000,0.0068022,0.0000000,0.0000000,0.0000000,0.0640307,0.0000000,0.0000000,0.0068022
20.0047270,1.0001000,,-0.9473894,-0.3200683,0.0000583,0.0031034,-0.0021509,0.0046942,0.0031891,,,,3.3230560,-9.8629770,-24.5297356,0.0000000,0.0000000,0.0000000,0.0200020,0.7104973,0.0000000,0.0000000,0.0641668,0.0000000,0.0000000,0.0000000,0.7104973,0.0000000,0.0000000,0.0641668,0.0000000,0.0000000,0.0000000,0.7104973,0.0000000,0.0000000,0.0641668,0.0641668,0.0000000,0.0000000,0.0068022,0.0000000,0.0000000,0.0000000,0.0641668,0.0000000,0.0000000,0.0068022,0.0000000,0.0000000,0.0000000,0.0641668,0.0000000,0.0000000,0.0068022
20.0247700,0.9999500,,-0.9473894,-0.3200683,0.0000584,0.0030985,0.0009234,0.0050555,0.0047608,,,,3.3230560,-9.8629770,-24.5297356,0.0000000,0.0000000,0.0000000,0.0199990,0.7130638,0.0000000,0.0000000,0.0643028,0.0000000,0.0000000,0.0000000,0.7130638,0.0000000,0.0000000,0.0643028,0.0000000,0.0000000,0.0000000,0.7130638,0.0000000,0.0000000,0.0643028,0.0643028,0.0000000,0.0000000,0.0068023,0.0000000,0.0000000,0.0000000,0.0643028,0.0000000,0.0000000,0.0068023,0.0000000,0.0000000,0.0000000,0.0643028,0.0000000,0.0000000,0.0068023
20.0457740,1.0496501,,-0.9473894,-0.3200683,0.0000638,0.0030889,-0.0043601,0.0049844,-0.0015335,,,,3.3230560,-9.8629770,-24.5297356,0.0000000,0.0000000,0.0000000,0.0209930,0.7157636,0.0000000,0.0000000,0.0644456,0.0000000,0.0000000,0.0000000,0.7157636,0.0000000,0.0000000,0.0644456,0.0000000,0.0000000,0.0000000,0.7157636,0.0000000,0.0000000,0.0644456,0.0644456,0.0000000,0.0000000,0.0068023,0.0000000,0.0000000,0.0000000,0.0644456,0.0000000,0.0000000,0.0068023,0.0000000,0.0000000,0.0000000,0.0644456,0.0000000,0.0000000,0.0068023
20.0617930,,0.9999900,-0.9473894,-0.3200683,0.0000638,0.0030889,,,,0.0000000,0.0000000,0.0000000,3.3230560,-9.8629770,-24.5297356,0.0000000,0.0000000,0.0000000,0.0999990,0.6978453,0.0000000,0.0000000,0.0628323,0.0000000,0.0000000,0.0000000,0.6978453,0.0000000,0.0000000,0.0628323,0.0000000,0.0000000,0.0000000,0.6978453,0.0000000,0.0000000,0.0628323,0.0628323,0.0000000,0.0000000,0.0066570,0.0000000,0.0000000,0.0000000,0.0628323,0.0000000,0.0000000,0.0066570,0.0000000,0.0000000,0.0000000,0.0628323,0.0000000,0.0000000,0.0066570
20.0754080,1.0999000,,-0.9473895,-0.3200682,0.0000900,0.0030737,0.0011082,0.0039647,0.0023995,,,,3.3230560,-9.8629770,-24.5297356,0.0000000,0.0000000,0.0000000,0.0219980,0.7006097,0.0000000,0.0000000,0.0629788,0.0000000,0.0000000,0.0000000,0.7006097,0.0000000,0.0000000,0.0629788,0.0000000,0.0000000,0.0000000,0.7006097,0.0000000,0.0000000,0.0629788,0.0629788,0.0000000,0.0000000,0.0066570,0.0000000,0.0000000,0.0000000,0.0629788,0.0000000,0.0000000,0.0066570,0.0000000,0.0000000,0.0000000,0.0629788,0.0000000,0.0000000,0.0066570
20.0890040,1.0506001,,-0.9473895,-0.3200682,0.0001020,0.0030737,-0.0005598,0.0012728,0.0011921,,,,3.3230560,-9.8629770,-24.5297356,0.0000000,0.0000000,0.0000000,0.0210120,0.7032563,0.0000000,0.0000000,0.0631186,0.0000000,0.0000000,0.0000000,0.7032563,0.0000000,0.0000000,0.0631186,0.0000000,0.0000000,0.0000000,0.7032563,0.0000000,0.0000000,0.0631186,0.0631186,0.0000000,0.0000000,0.0066570,0.0000000,0.0000000,0.0000000,0.0631186,0.0000000,0.0000000,0.0066570,0.0000000,0.0000000,0.0000000,0.0631186,0.0000000,0.0000000,0.0066570
20.1089560,0.9996500,,-0.9473895,-0.3200681,0.0001390,0.0030956,-0.0042777,-0.0007445,0.0042505,,,,3.3230560,-9.8629770,-24.5297356,0.0000000,0.0000000,0.0000000,0.0199930,0.7057801,0.0000000,0.0000000,0.0632517,0.0000000,0.0000000,0.0000000,0.7057801,0.0000000,0.0000000,0.0632517,0.0000000,0.0000000,0.0000000,0.7057801,0.0000000,0.0000000,0.0632517,0.0632517,0.0000000,0.0000000,0.0066570,0.0000000,0.0000000,0.0000000,0.0632517,0.0000000,0.0000000,0.0066570,0.0000000,0.0000000,0.0000000,0.0632517,0.0000000,0.0000000,0.0066570
20.1290190,1.0000000,,-0.9473895,-0.3200680,0.0001642,0.0031021,-0.0041683,0.0031220,0.0016294,,,,3.3230560,-9.8629770,-24.5297356,0.0000000,0.0000000,0.0000000,0.0200000,0.7083102,0.0000000,0.0000000,0.0633849,0.0000000,0.0000000,0.0000000,0.7083102,0.0000000,0.0000000,0.0633849,0.0000000,0.0000000,0.0000000,0.7083102,0.0000000,0.0000000,0.0633849,0.0633849,0.0000000,0.0000000,0.0066570,0.0000000,0.0000000,0.0000000,0.0633849,0.0000000,0.0000000,0.0066570,0.0000000,0.0000000,0.0000000,0.0633849,0.0000000,0.0000000,0.0066570
20.1487470,1.0001501,,-0.9473895,-0.3200680,0.0001790,0.0030905,-0.0023969,0.0062531,0.0061781,,,,3.3230560,-9.8629770,-24.5297356,0.0000000,0.0000000,0.0000000,0.0200030,0.7108460,0.0000000,0.0000000,0.0635180,0.0000000,0.0000000,0.0000000,0.7108460,0.0000000,0.0000000,0.0635180,0.0000000,0.0000000,0.0000000,0.7108460,0.0000000,0.0000000,0.0635180,0.0635180,0.0000000,0.0000000,0.0066570,0.0000000,0.0000000,0.0000000,0.0635180,0.0000000,0.0000000,0.0066570,0.0000000,0.0000000,0.0000000,0.0635180,0.0000000,0.0000000,0.0066570
20.1648230,,1.0000900,-0.9473895,-0.3200680,0.0001790,0.0030905,,,,0.0000000,0.0000000,0.0000000,3.3230560,-9.8629770,-24.5297356,0.0000000,0.0000000,0.0000000,0.1000090,0.6931701,0.0000000,0.0000000,0.0619386,0.0000000,0.0000000,0.0000000,0.6931701,0.0000000,0.0000000,0.0619386,0.0000000,0.0000000,0.0000000,0.6931701,0.0000000,0.0000000,0.0619386,0.0619386,0.0000000,0.0000000,0.0065159,0.0000000,0.0000000,0.0000000,0.0619386,0.0000000,0.0000000,0.0065159,0.0000000,0.0000000,0.0000000,0.0619386,0.0000000,0.0000000,0.0065159
20.1782930,1.0997001,,-0.9473895,-0.3200679,0.0001862,0.0030875,-0.0081031,0.0056290,0.0047904,,,,3.3230560,-9.8629770,-24.5297356,0.0000000,0.0000000,0.0000000,0.0219940,0.6958947,0.0000000,0.0000000,0.0620819,0.0000000,0.0000000,0.0000000,0.6958947,0.0000000,0.0000000,0.0620819,0.0000000,0.0000000,0.0000000,0.6958947,0.0000000,0.0000000,0.0620819,0.0620819,0.0000000,0.0000000,0.0065159,0.0000000,0.0000000,0.0000000,0.0620819,0.0000000,0.0000000,0.0065159,0.0000000,0.0000000,0.0000000,0.0620819,0.0000000,0.0000000,0.0065159
20.1918700,1.0498000,,-0.9473895,-0.3200680,0.0001749,0.0030907,-0.0004886,0.0053169,0.0050731,,,,3.3230560,-9.8629770,-24.5297356,0.0000000,0.0000000,0.0000000,0.0209960,0.6985016,0.0000000,0.0000000,0.0622187,0.0000000,0.0000000,0.0000000,0.6985016,0.0000000,0.0000000,0.0622187,0.0000000,0.0000000,0.0000000,0.6985016,0.0000000,0.0000000,0.0622187,0.0622187,0.0000000,0.0000000,0.0065159,0.0000000,0.0000000,0.0000000,0.0622187,0.0000000,0.0000000,0.0065159,0.0000000,0.0000000,0.0000000,0.0622187,0.0000000,0.0000000,0.0065159
20.2121630,1.0000000,,-0.9473895,-0.3200681,0.0001363,0.0030921,0.0017927,0.0048939,0.0057028,,,,3.3230560,-9.8629770,-24.5297356,0.0000000,0.0000000,0.0000000,0.0200000,0.7009903,0.0000000,0.0000000,0.0623490,0.0000000,0.0000000,0.0000000,0.7009903,0.0000000,0.0000000,0.0623490,0.0000000,0.0000000,0.0000000,0.7009903,0.0000000,0.0000000,0.0623490,0.0623490,0.0000000,0.0000000,0.0065159,0.0000000,0.0000000,0.0000000,0.0623490,0.0000000,0.0000000,0.0065159,0.0000000,0.0000000,0.0000000,0.0623490,0.0000000,0.0000000,0.0065159
20.2319140,1.0000000,,-0.9473895,-0.3200681,0.0001294,0.0030943,0.0019797,0.0012720,0.0069941,,,,3.3230560,-9.8629770,-24.5297356,0.0000000,0.0000000,0.0000000,0.0200000,0.7034843,0.0000000,0.0000000,0.0624794,0.0000000,0.0000000,0.0000000,0.7034843,0.0000000,0.0000000,0.0624794,0.0000000,0.0000000,0.0000000,0.7034843,0.0000000,0.0000000,0.0624794,0.0624794,0.0000000,0.0000000,0.0065159,0.0000000,0.0000000,0.0000000,0.0624794,0.0000000,0.0000000,0.0065159,0.0000000,0.0000000,0.0000000,0.0624794,0.0000000,0.0000000,0.0065159
20.2520400,,0.9999500,-0.9473894,-0.3200681,0.0001215,0.0031110,,,,0.0000000,0.0000000,0.0000000,3.3230560,-9.8629770,-24.5297356,0.0000000,0.0000000,0.0000000,0.0999950,0.6861681,0.0000000,0.0000000,0.0609414,0.0000000,0.0000000,0.0000000,0.6861681,0.0000000,0.0000000,0.0609414,0.0000000,0.0000000,0.0000000,0.6861681,0.0000000,0.0000000,0.0609414,0.0609414,0.0000000,0.0000000,0.0063793,0.0000000,0.0000000,0.0000000,0.0609414,0.0000000,0.0000000,0.0063793,0.0000000,0.0000000,0.0000000,0.0609414,0.0000000,0.0000000,0.0063793
