t,predict_cpu,update_cpu,quat_x,quat_y,quat_z,quat_w,accel_x,accel_y,accel_z,of_x,of_y,of_z,x_x,x_y,x_z,x_vx,x_vy,x_vz,dt,P_0,P_1,P_2,P_3,P_4,P_5,P_6,P_7,P_8,P_9,P_10,P_11,P_12,P_13,P_14,P_15,P_16,P_17,P_18,P_19,P_20,P_21,P_22,P_23,P_24,P_25,P_26,P_27,P_28,P_29,P_30,P_31,P_32,P_33,P_34,P_35
423.5178390,1.0005001,,-0.9991133,0.0420114,-0.0011663,0.0025076,0.0009246,-0.0031420,0.0002545,,,,0.2130947,4.8164411,-15.9049215,0.0000000,0.0000000,0.0000000,0.0200100,0.0002027,0.0000000,0.0000000,0.0000202,0.0000000,0.0000000,0.0000000,0.0002027,0.0000000,0.0000000,0.0000202,0.0000000,0.0000000,0.0000000,0.0002027,0.0000000,0.0000000,0.0000202,0.0000202,0.0000000,0.0000000,0.0000040,0.0000000,0.0000000,0.0000000,0.0000202,0.0000000,0.0000000,0.0000040,0.0000000,0.0000000,0.0000000,0.0000202,0.0000000,0.0000000,0.0000040
423.5345610,,0.9999900,-0.9991133,0.0420114,-0.0011663,0.0025076,,,,0.0000000,0.0000000,0.0000000,0.2130947,4.8164411,-15.9049215,0.0000000,0.0000000,0.0000000,0.0999990,0.0001986,0.0000000,0.0000000,0.0000198,0.0000000,0.0000000,0.0000000,0.0001986,0.0000000,0.0000000,0.0000198,0.0000000,0.0000000,0.0000000,0.0001986,0.0000000,0.0000000,0.0000198,0.0000198,0.0000000,0.0000000,0.0000040,0.0000000,0.0000000,0.0000000,0.0000198,0.0000000,0.0000000,0.0000040,0.0000000,0.0000000,0.0000000,0.0000198,0.0000000,0.0000000,0.0000040
423.5475650,1.1000000,,-0.9991133,0.0420114,-0.0011756,0.0025263,0.0025604,-0.0050805,0.0018286,,,,0.2130947,4.8164411,-15.9049215,0.0000000,0.0000000,0.0000000,0.0220000,0.0001995,0.0000000,0.0000000,0.0000199,0.0000000,0.0000000,0.0000000,0.0001995,0.0000000,0.0000000,0.0000199,0.0000000,0.0000000,0.0000000,0.0001995,0.0000000,0.0000000,0.0000199,0.0000199,0.0000000,0.0000000,0.0000040,0.0000000,0.0000000,0.0000000,0.0000199,0.0000000,0.0000000,0.0000040,0.0000000,0.0000000,0.0000000,0.0000199,0.0000000,0.0000000,0.0000040
423.5611680,1.0498501,,-0.9991133,0.0420114,-0.0011889,0.0025069,0.0023865,0.0061038,-0.0015347,,,,0.2130947,4.8164411,-15.9049215,0.0000000,0.0000000,0.0000000,0.0209970,0.0002003,0.0000000,0.0000000,0.0000200,0.0000000,0.0000000,0.0000000,0.0002003,0.0000000,0.0000000,0.0000200,0.0000000,0.0000000,0.0000000,0.0002003,0.0000000,0.0000000,0.0000200,0.0000200,0.0000000,0.0000000,0.0000040,0.0000000,0.0000000,0.0000000,0.0000200,0.0000000,0.0000000,0.0000040,0.0000000,0.0000000,0.0000000,0.0000200,0.0000000,0.0000000,0.0000040
423.5808990,1.0001000,,-0.9991133,0.0420114,-0.0011913,0.0024922,0.0030395,0.0043565,-0.0029646,,,,0.2130947,4.8164411,-15.9049215,0.0000000,0.0000000,0.0000000,0.0200020,0.0002011,0.0000000,0.0000000,0.0000201,0.0000000,0.0000000,0.0000000,0.0002011,0.0000000,0.0000000,0.0000201,0.0000000,0.0000000,0.0000000,0.0002011,0.0000000,0.0000000,0.0000201,0.0000201,0.0000000,0.0000000,0.0000040,0.0000000,0.0000000,0.0000000,0.0000201,0.0000000,0.0000000,0.0000040,0.0000000,0.0000000,0.0000000,0.0000201,0.0000000,0.0000000,0.0000040
423.6008770,0.9998000,,-0.9991133,0.0420114,-0.0011886,0.0024919,0.0001999,0.0042306,-0.0012382,,,,0.2130947,4.8164411,-15.9049215,0.0000000,0.0000000,0.0000000,0.0199960,0.0002019,0.0000000,0.0000000,0.0000202,0.0000000,0.0000000,0.0000000,0.0002019,0.0000000,0.0000000,0.0000202,0.0000000,0.0000000,0.0000000,0.0002019,0.0000000,0.0000000,0.0000202,0.0000202,0.0000000,0.0000000,0.0000040,0.0000000,0.0000000,0.0000000,0.0000202,0.0000000,0.0000000,0.0000040,0.0000000,0.0000000,0.0000000,0.0000202,0.0000000,0.0000000,0.0000040
423.6206360,0.9998500,,-0.9991133,0.0420115,-0.0011793,0.0025147,0.0000160,-0.0045757,-0.0072185,,,,0.2130947,4.8164411,-15.9049215,0.0000000,0.0000000,0.0000000,0.0199970,0.0002027,0.0000000,0.0000000,0.0000203,0.0000000,0.0000000,0.0000000,0.0002027,0.0000000,0.0000000,0.0000203,0.0000000,0.0000000,0.0000000,0.0002027,0.0000000,0.0000000,0.0000203,0.0000203,0.0000000,0.0000000,0.0000040,0.0000000,0.0000000,0.0000000,0.0000203,0.0000000,0.0000000,0.0000040,0.0000000,0.0000000,0.0000000,0.0000203,0.0000000,0.0000000,0.0000040
423.6367540,,1.0000401,-0.9991133,0.0420115,-0.0011793,0.0025147,,,,0.0000000,0.0000000,0.0000000,0.2130947,4.8164411,-15.9049215,0.0000000,0.0000000,0.0000000,0.1000040,0.0001987,0.0000000,0.0000000,0.0000199,0.0000000,0.0000000,0.0000000,0.0001987,0.0000000,0.0000000,0.0000199,0.0000000,0.0000000,0.0000000,0.0001987,0.0000000,0.0000000,0.0000199,0.0000199,0.0000000,0.0000000,0.0000040,0.0000000,0.0000000,0.0000000,0.0000199,0.0000000,0.0000000,0.0000040,0.0000000,0.0000000,0.0000000,0.0000199,0.0000000,0.0000000,0.0000040
423.6502590,1.1000000,,-0.9991133,0.0420114,-0.0011850,0.0025112,0.0040516,0.0000239,-0.0031286,,,,0.2130947,4.8164411,-15.9049215,0.0000000,0.0000000,0.0000000,0.0220000,0.0001996,0.0000000,0.0000000,0.0000199,0.0000000,0.0000000,0.0000000,0.0001996,0.0000000,0.0000000,0.0000199,0.0000000,0.0000000,0.0000000,0.0001996,0.0000000,0.0000000,0.0000199,0.0000199,0.0000000,0.0000000,0.0000040,0.0000000,0.0000000,0.0000000,0.0000199,0.0000000,0.0000000,0.0000040,0.0000000,0.0000000,0.0000000,0.0000199,0.0000000,0.0000000,0.0000040
423.6637980,1.0498999,,-0.9991133,0.0420115,-0.0011748,0.0024940,0.0002405,0.0018048,-0.0074237,,,,0.2130947,4.8164411,-15.9049215,0.0000000,0.0000000,0.0000000,0.0209980,0.0002004,0.0000000,0.0000000,0.0000200,0.0000000,0.0000000,0.0000000,0.0002004,0.0000000,0.0000000,0.0000200,0.0000000,0.0000000,0.0000000,0.0002004,0.0000000,0.0000000,0.0000200,0.0000200,0.0000000,0.0000000,0.0000040,0.0000000,0.0000000,0.0000000,0.0000200,0.0000000,0.0000000,0.0000040,0.0000000,0.0000000,0.0000000,0.0000200,0.0000000,0.0000000,0.0000040
423.6838290,1.0000501,,-0.9991134,0.0420115,-0.0011509,0.0024838,-0.0018710,-0.0024316,-0.0017587,,,,0.2130947,4.8164411,-15.9049215,0.0000000,0.0000000,0.0000000,0.0200010,0.0002012,0.0000000,0.0000000,0.0000201,0.0000000,0.0000000,0.0000000,0.0002012,0.0000000,0.0000000,0.0000201,0.0000000,0.0000000,0.0000000,0.0002012,0.0000000,0.0000000,0.0000201,0.0000201,0.0000000,0.0000000,0.0000040,0.0000000,0.0000000,0.0000000,0.0000201,0.0000000,0.0000000,0.0000040,0.0000000,0.0000000,0.0000000,0.0000201,0.0000000,0.0000000,0.0000040
423.7037490,1.0006001,,-0.9991133,0.0420116,-0.0011465,0.0025026,-0.0051393,-0.0015744,0.0066814,,,,0.2130947,4.8164411,-15.9049215,0.0000000,0.0000000,0.0000000,0.0200120,0.0002020,0.0000000,0.0000000,0.0000202,0.0000000,0.0000000,0.0000000,0.0002020,0.0000000,0.0000000,0.0000202,0.0000000,0.0000000,0.0000000,0.0002020,0.0000000,0.0000000,0.0000202,0.0000202,0.0000000,0.0000000,0.0000040,0.0000000,0.0000000,0.0000000,0.0000202,0.0000000,0.0000000,0.0000040,0.0000000,0.0000000,0.0000000,0.0000202,0.0000000,0.0000000,0.0000040
423.7246640,1.0494001,,-0.9991133,0.0420115,-0.0011580,0.0025083,-0.0041184,-0.0016417,0.0004034,,,,0.2130947,4.8164411,-15.9049215,0.0000000,0.0000000,0.0000000,0.0209880,0.0002029,0.0000000,0.0000000,0.0000203,0.0000000,0.0000000,0.0000000,0.0002029,0.0000000,0.0000000,0.0000203,0.0000000,0.0000000,0.0000000,0.0002029,0.0000000,0.0000000,0.0000203,0.0000203,0.0000000,0.0000000,0.0000040,0.0000000,0.0000000,0.0000000,0.0000203,0.0000000,0.0000000,0.0000040,0.0000000,0.0000000,0.0000000,0.0000203,0.0000000,0.0000000,0.0000040
423.7405950,,1.0000299,-0.9991133,0.0420115,-0.0011580,0.0025083,,,,0.0000000,0.0000000,0.0000000,0.2130947,4.8164411,-15.9049215,0.0000000,0.0000000,0.0000000,0.1000030,0.0001988,0.0000000,0.0000000,0.0000199,0.0000000,0.0000000,0.0000000,0.0001988,0.0000000,0.0000000,0.0000199,0.0000000,0.0000000,0.0000000,0.0001988,0.0000000,0.0000000,0.0000199,0.0000199,0.0000000,0.0000000,0.0000040,0.0000000,0.0000000,0.0000000,0.0000199,0.0000000,0.0000000,0.0000040,0.0000000,0.0000000,0.0000000,0.0000199,0.0000000,0.0000000,0.0000040
423.7537140,1.1006001,,-0.9991133,0.0420116,-0.0011519,0.0024924,-0.0052941,0.0017045,-0.0002866,,,,0.2130947,4.8164411,-15.9049215,0.0000000,0.0000000,0.0000000,0.0220120,0.0001997,0.0000000,0.0000000,0.0000200,0.0000000,0.0000000,0.0000000,0.0001997,0.0000000,0.0000000,0.0000200,0.0000000,0.0000000,0.0000000,0.0001997,0.0000000,0.0000000,0.0000200,0.0000200,0.0000000,0.0000000,0.0000040,0.0000000,0.0000000,0.0000000,0.0000200,0.0000000,0.0000000,0.0000040,0.0000000,0.0000000,0.0000000,0.0000200,0.0000000,0.0000000,0.0000040
423.7667950,0.9993500,,-0.9991134,0.0420116,-0.0011244,0.0024844,-0.0021740,-0.0012611,-0.0028288,,,,0.2130947,4.8164411,-15.9049215,0.0000000,0.0000000,0.0000000,0.0199870,0.0002005,0.0000000,0.0000000,0.0000200,0.0000000,0.0000000,0.0000000,0.0002005,0.0000000,0.0000000,0.0000200,0.0000000,0.0000000,0.0000000,0.0002005,0.0000000,0.0000000,0.0000200,0.0000200,0.0000000,0.0000000,0.0000040,0.0000000,0.0000000,0.0000000,0.0000200,0.0000000,0.0000000,0.0000040,0.0000000,0.0000000,0.0000000,0.0000200,0.0000000,0.0000000,0.0000040
423.7879490,1.0501001,,-0.9991134,0.0420118,-0.0010791,0.0024905,-0.0115316,0.0033749,0.0012711,,,,0.2130947,4.8164411,-15.9049215,0.0000000,0.0000000,0.0000000,0.0210020,0.0002014,0.0000000,0.0000000,0.0000201,0.0000000,0.0000000,0.0000000,0.0002014,0.0000000,0.0000000,0.0000201,0.0000000,0.0000000,0.0000000,0.0002014,0.0000000,0.0000000,0.0000201,0.0000201,0.0000000,0.0000000,0.0000040,0.0000000,0.0000000,0.0000000,0.0000201,0.0000000,0.0000000,0.0000040,0.0000000,0.0000000,0.0000000,0.0000201,0.0000000,0.0000000,0.0000040
423.8076940,1.0003999,,-0.9991133,0.0420118,-0.0010752,0.0025312,-0.0106334,0.0003981,0.0038018,,,,0.2130947,4.8164411,-15.9049215,0.0000000,0.0000000,0.0000000,0.0200080,0.0002022,0.0000000,0.0000000,0.0000202,0.0000000,0.0000000,0.0000000,0.0002022,0.0000000,0.0000000,0.0000202,0.0000000,0.0000000,0.0000000,0.0002022,0.0000000,0.0000000,0.0000202,0.0000202,0.0000000,0.0000000,0.0000040,0.0000000,0.0000000,0.0000000,0.0000202,0.0000000,0.0000000,0.0000040,0.0000000,0.0000000,0.0000000,0.0000202,0.0000000,0.0000000,0.0000040
423.8309480,,1.0099300,-0.9991133,0.0420118,-0.0010695,0.0025326,,,,0.0000000,0.0000000,0.0000000,0.2130947,4.8164411,-15.9049215,0.0000000,0.0000000,0.0000000,0.1009930,0.0001982,0.0000000,0.0000000,0.0000198,0.0000000,0.0000000,0.0000000,0.0001982,0.0000000,0.0000000,0.0000198,0.0000000,0.0000000,0.0000000,0.0001982,0.0000000,0.0000000,0.0000198,0.0000198,0.0000000,0.0000000,0.0000040,0.0000000,0.0000000,0.0000000,0.0000198,0.0000000,0.0000000,0.0000040,0.0000000,0.0000000,0.0000000,0.0000198,0.0000000,0.0000000,0.0000040
423.8445510,1.0999500,,-0.9991133,0.0420118,-0.0010695,0.0025326,-0.0004110,0.0022895,-0.0027378,,,,0.2130947,4.8164411,-15.9049215,0.0000000,0.0000000,0.0000000,0.0219990,0.0001990,0.0000000,0.0000000,0.0000199,0.0000000,0.0000000,0.0000000,0.0001990,0.0000000,0.0000000,0.0000199,0.0000000,0.0000000,0.0000000,0.0001990,0.0000000,0.0000000,0.0000199,0.0000199,0.0000000,0.0000000,0.0000040,0.0000000,0.0000000,0.0000000,0.0000199,0.0000000,0.0000000,0.0000040,0.0000000,0.0000000,0.0000000,0.0000199,0.0000000,0.0000000,0.0000040
423.8592410,1.3996500,,-0.9991133,0.0420119,-0.0010587,0.0025420,0.0005651,0.0022739,0.0005842,,,,0.2130947,4.8164411,-15.9049215,0.0000000,0.0000000,0.0000000,0.0279930,0.0002001,0.0000000,0.0000000,0.0000200,0.0000000,0.0000000,0.0000000,0.0002001,0.0000000,0.0000000,0.0000200,0.0000000,0.0000000,0.0000000,0.0002001,0.0000000,0.0000000,0.0000200,0.0000200,0.0000000,0.0000000,0.0000040,0.0000000,0.0000000,0.0000000,0.0000200,0.0000000,0.0000000,0.0000040,0.0000000,0.0000000,0.0000000,0.0000200,0.0000000,0.0000000,0.0000040
423.8779100,1.0000000,,-0.9991133,0.0420120,-0.0010416,0.0025582,0.0023043,0.0005800,-0.0043542,,,,0.2130947,4.8164411,-15.9049215,0.0000000,0.0000000,0.0000000,0.0200000,0.0002009,0.0000000,0.0000000,0.0000201,0.0000000,0.0000000,0.0000000,0.0002009,0.0000000,0.0000000,0.0000201,0.0000000,0.0000000,0.0000000,0.0002009,0.0000000,0.0000000,0.0000201,0.0000201,0.0000000,0.0000000,0.0000040,0.0000000,0.0000000,0.0000000,0.0000201,0.0000000,0.0000000,0.0000040,0.0000000,0.0000000,0.0000000,0.0000201,0.0000000,0.0000000,0.0000040
423.8976450,0.9999500,,-0.9991133,0.0420120,-0.0010279,0.0025609,0.0026933,-0.0005187,-0.0043744,,,,0.2130947,4.8164411,-15.9049215,0.0000000,0.0000000,0.0000000,0.0199990,0.0002017,0.0000000,0.0000000,0.0000202,0.0000000,0.0000000,0.0000000,0.0002017,0.0000000,0.0000000,0.0000202,0.0000000,0.0000000,0.0000000,0.0002017,0.0000000,0.0000000,0.0000202,0.0000202,0.0000000,0.0000000,0.0000040,0.0000000,0.0000000,0.0000000,0.0000202,0.0000000,0.0000000,0.0000040,0.0000000,0.0000000,0.0000000,0.0000202,0.0000000,0.0000000,0.0000040
423.9176210,1.0000000,,-0.9991133,0.0420120,-0.0010293,0.0025422,0.0092126,0.0003586,-0.0009665,,,,0.2130947,4.8164411,-15.9049215,0.0000000,0.0000000,0.0000000,0.0200000,0.0002026,0.0000000,0.0000000,0.0000202,0.0000000,0.0000000,0.0000000,0.0002026,0.0000000,0.0000000,0.0000202,0.0000000,0.0000000,0.0000000,0.0002026,0.0000000,0.0000000,0.0000202,0.0000202,0.0000000,0.0000000,0.0000040,0.0000000,0.0000000,0.0000000,0.0000202,0.0000000,0.0000000,0.0000040,0.0000000,0.0000000,0.0000000,0.0000202,0.0000000,0.0000000,0.0000040
423.9337690,,1.0156000,-0.9991133,0.0420120,-0.0010293,0.0025422,,,,0.0000000,0.0000000,0.0000000,0.2130947,4.8164411,-15.9049215,0.0000000,0.0000000,0.0000000,0.1015600,0.0001985,0.0000000,0.0000000,0.0000198,0.0000000,0.0000000,0.0000000,0.0001985,0.0000000,0.0000000,0.0000198,0.0000000,0.0000000,0.0000000,0.0001985,0.0000000,0.0000000,0.0000198,0.0000198,0.0000000,0.0000000,0.0000040,0.0000000,0.0000000,0.0000000,0.0000198,0.0000000,0.0000000,0.0000040,0.0000000,0.0000000,0.0000000,0.0000198,0.0000000,0.0000000,0.0000040
423.9473640,1.1002001,,-0.9991134,0.0420120,-0.0010400,0.0025092,0.0097714,0.0022164,0.0017140,,,,0.2130947,4.8164411,-15.9049215,0.0000000,0.0000000,0.0000000,0.0220040,0.0001994,0.0000000,0.0000000,0.0000199,0.0000000,0.0000000,0.0000000,0.0001994,0.0000000,0.0000000,0.0000199,0.0000000,0.0000000,0.0000000,0.0001994,0.0000000,0.0000000,0.0000199,0.0000199,0.0000000,0.0000000,0.0000040,0.0000000,0.0000000,0.0000000,0.0000199,0.0000000,0.0000000,0.0000040,0.0000000,0.0000000,0.0000000,0.0000199,0.0000000,0.0000000,0.0000040
423.9609290,1.0501500,,-0.9991134,0.0420119,-0.0010704,0.0024797,0.0063353,0.0023823,0.0032984,,,,0.2130947,4.8164411,-15.9049215,0.0000000,0.0000000,0.0000000,0.0210030,0.0002002,0.0000000,0.0000000,0.0000200,0.0000000,0.0000000,0.0000000,0.0002002,0.0000000,0.0000000,0.0000200,0.0000000,0.0000000,0.0000000,0.0002002,0.0000000,0.0000000,0.0000200,0.0000200,0.0000000,0.0000000,0.0000040,0.0000000,0.0000000,0.0000000,0.0000200,0.0000000,0.0000000,0.0000040,0.0000000,0.0000000,0.0000000,0.0000200,0.0000000,0.0000000,0.0000040
423.9822200,0.9999500,,-0.9991134,0.0420118,-0.0010851,0.0024699,0.0009551,0.0039454,-0.0039660,,,,0.2130947,4.8164411,-15.9049215,0.0000000,0.0000000,0.0000000,0.0199990,0.0002010,0.0000000,0.0000000,0.0000201,0.0000000,0.0000000,0.0000000,0.0002010,0.0000000,0.0000000,0.0000201,0.0000000,0.0000000,0.0000000,0.0002010,0.0000000,0.0000000,0.0000201,0.0000201,0.0000000,0.0000000,0.0000040,0.0000000,0.0000000,0.0000000,0.0000201,0.0000000,0.0000000,0.0000040,0.0000000,0.0000000,0.0000000,0.0000201,0.0000000,0.0000000,0.0000040
424.0023250,0.9999500,,-0.9991134,0.0420118,-0.0011071,0.0024794,0.0009201,-0.0030551,-0.0044244,,,,0.2130947,4.8164411,-15.9049215,0.0000000,0.0000000,0.0000000,0.0199990,0.0002018,0.0000000,0.0000000,0.0000202,0.0000000,0.0000000,0.0000000,0.0002018,0.0000000,0.0000000,0.0000202,0.0000000,0.0000000,0.0000000,0.0002018,0.0000000,0.0000000,0.0000202,0.0000202,0.0000000,0.0000000,0.0000040,0.0000000,0.0000000,0.0000000,0.0000202,0.0000000,0.0000000,0.0000040,0.0000000,0.0000000,0.0000000,0.0000202,0.0000000,0.0000000,0.0000040
424.0218000,1.0502001,,-0.9991134,0.0420117,-0.0011316,0.0024789,0.0050300,0.0022185,0.0007175,,,,0.2130947,4.8164411,-15.9049215,0.0000000,0.0000000,0.0000000,0.0210040,0.0002027,0.0000000,0.0000000,0.0000203,0.0000000,0.0000000,0.0000000,0.0002027,0.0000000,0.0000000,0.0000203,0.0000000,0.0000000,0.0000000,0.0002027,0.0000000,0.0000000,0.0000203,0.0000203,0.0000000,0.0000000,0.0000040,0.0000000,0.0000000,0.0000000,0.0000203,0.0000000,0.0000000,0.0000040,0.0000000,0.0000000,0.0000000,0.0000203,0.0000000,0.0000000,0.0000040
424.0375470,,1.0244300,-0.9991134,0.0420117,-0.0011316,0.0024789,,,,0.0000000,0.0000000,0.0000000,0.2130947,4.8164411,-15.9049215,0.0000000,0.0000000,0.0000000,0.1024430,0.0001987,0.0000000,0.0000000,0.0000198,0.0000000,0.0000000,0.0000000,0.0001987,0.0000000,0.0000000,0.0000198,0.0000000,0.0000000,0.0000000,0.0001987,0.0000000,0.0000000,0.0000198,0.0000198,0.0000000,0.0000000,0.0000040,0.0000000,0.0000000,0.0000000,0.0000198,0.0000000,0.0000000,0.0000040,0.0000000,0.0000000,0.0000000,0.0000198,0.0000000,0.0000000,0.0000040
424.0513560,0.9998500,,-0.9991134,0.0420117,-0.0011546,0.0024619,0.0007145,0.0043365,0.0035326,,,,0.2130947,4.8164411,-15.9049215,0.0000000,0.0000000,0.0000000,0.0199970,0.0001995,0.0000000,0.0000000,0.0000199,0.0000000,0.0000000,0.0000000,0.0001995,0.0000000,0.0000000,0.0000199,0.0000000,0.0000000,0.0000000,0.0001995,0.0000000,0.0000000,0.0000199,0.0000199,0.0000000,0.0000000,0.0000040,0.0000000,0.0000000,0.0000000,0.0000199,0.0000000,0.0000000,0.0000040,0.0000000,0.0000000,0.0000000,0.0000199,0.0000000,0.0000000,0.0000040
424.0646790,1.1496500,,-0.9991134,0.0420116,-0.0011831,0.0024595,0.0036455,0.0037017,-0.0004310,,,,0.2130947,4.8164411,-15.9049215,0.0000000,0.0000000,0.0000000,0.0229930,0.0002004,0.0000000,0.0000000,0.0000200,0.0000000,0.0000000,0.0000000,0.0002004,0.0000000,0.0000000,0.0000200,0.0000000,0.0000000,0.0000000,0.0002004,0.0000000,0.0000000,0.0000200,0.0000200,0.0000000,0.0000000,0.0000040,0.0000000,0.0000000,0.0000000,0.0000200,0.0000000,0.0000000,0.0000040,0.0000000,0.0000000,0.0000000,0.0000200,0.0000000,0.0000000,0.0000040
424.0859420,1.0501001,,-0.9991134,0.0420116,-0.0011927,0.0024577,0.0053704,-0.0034516,0.0012494,,,,0.2130947,4.8164411,-15.9049215,0.0000000,0.0000000,0.0000000,0.0210020,0.0002012,0.0000000,0.0000000,0.0000201,0.0000000,0.0000000,0.0000000,0.0002012,0.0000000,0.0000000,0.0000201,0.0000000,0.0000000,0.0000000,0.0002012,0.0000000,0.0000000,0.0000201,0.0000201,0.0000000,0.0000000,0.0000040,0.0000000,0.0000000,0.0000000,0.0000201,0.0000000,0.0000000,0.0000040,0.0000000,0.0000000,0.0000000,0.0000201,0.0000000,0.0000000,0.0000040
424.1059380,1.0002999,,-0.9991134,0.0420116,-0.0012077,0.0024507,-0.0028232,-0.0004517,-0.0086527,,,,0.2130947,4.8164411,-15.9049215,0.0000000,0.0000000,0.0000000,0.0200060,0.0002020,0.0000000,0.0000000,0.0000202,0.0000000,0.0000000,0.0000000,0.0002020,0.0000000,0.0000000,0.0000202,0.0000000,0.0000000,0.0000000,0.0002020,0.0000000,0.0000000,0.0000202,0.0000202,0.0000000,0.0000000,0.0000040,0.0000000,0.0000000,0.0000000,0.0000202,0.0000000,0.0000000,0.0000040,0.0000000,0.0000000,0.0000000,0.0000202,0.0000000,0.0000000,0.0000040
424.1260060,0.9999000,,-0.9991134,0.0420115,-0.0012203,0.0024426,-0.0005876,0.0003082,-0.0053029,,,,0.2130947,4.8164411,-15.9049215,0.0000000,0.0000000,0.0000000,0.0199980,0.0002028,0.0000000,0.0000000,0.0000203,0.0000000,0.0000000,0.0000000,0.0002028,0.0000000,0.0000000,0.0000203,0.0000000,0.0000000,0.0000000,0.0002028,0.0000000,0.0000000,0.0000203,0.0000203,0.0000000,0.0000000,0.0000040,0.0000000,0.0000000,0.0000000,0.0000203,0.0000000,0.0000000,0.0000040,0.0000000,0.0000000,0.0000000,0.0000203,0.0000000,0.0000000,0.0000040
424.1417570,,1.0199499,-0.9991134,0.0420115,-0.0012203,0.0024426,,,,0.0000000,0.0000000,0.0000000,0.2130947,4.8164411,-15.9049215,0.0000000,0.0000000,0.0000000,0.1019950,0.0001988,0.0000000,0.0000000,0.0000199,0.0000000,0.0000000,0.0000000,0.0001988,0.0000000,0.0000000,0.0000199,0.0000000,0.0000000,0.0000000,0.0001988,0.0000000,0.0000000,0.0000199,0.0000199,0.0000000,0.0000000,0.0000040,0.0000000,0.0000000,0.0000000,0.0000199,0.0000000,0.0000000,0.0000040,0.0000000,0.0000000,0.0000000,0.0000199,0.0000000,0.0000000,0.0000040
424.1555920,1.0001000,,-0.9991134,0.0420115,-0.0012236,0.0024543,-0.0028802,-0.0048965,-0.0033839,,,,0.2130947,4.8164411,-15.9049215,0.0000000,0.0000000,0.0000000,0.0200020,0.0001996,0.0000000,0.0000000,0.0000199,0.0000000,0.0000000,0.0000000,0.0001996,0.0000000,0.0000000,0.0000199,0.0000000,0.0000000,0.0000000,0.0001996,0.0000000,0.0000000,0.0000199,0.0000199,0.0000000,0.0000000,0.0000040,0.0000000,0.0000000,0.0000000,0.0000199,0.0000000,0.0000000,0.0000040,0.0000000,0.0000000,0.0000000,0.0000199,0.0000000,0.0000000,0.0000040
424.1685740,1.1496000,,-0.9991134,0.0420116,-0.0012135,0.0024535,-0.0044918,-0.0023872,-0.0026685,,,,0.2130947,4.8164411,-15.9049215,0.0000000,0.0000000,0.0000000,0.0229920,0.0002005,0.0000000,0.0000000,0.0000200,0.0000000,0.0000000,0.0000000,0.0002005,0.0000000,0.0000000,0.0000200,0.0000000,0.0000000,0.0000000,0.0002005,0.0000000,0.0000000,0.0000200,0.0000200,0.0000000,0.0000000,0.0000040,0.0000000,0.0000000,0.0000000,0.0000200,0.0000000,0.0000000,0.0000040,0.0000000,0.0000000,0.0000000,0.0000200,0.0000000,0.0000000,0.0000040
424.1897670,1.0500500,,-0.9991134,0.0420116,-0.0011896,0.0024427,-0.0052595,0.0020184,-0.0052405,,,,0.2130947,4.8164411,-15.9049215,0.0000000,0.0000000,0.0000000,0.0210010,0.0002014,0.0000000,0.0000000,0.0000201,0.0000000,0.0000000,0.0000000,0.0002014,0.0000000,0.0000000,0.0000201,0.0000000,0.0000000,0.0000000,0.0002014,0.0000000,0.0000000,0.0000201,0.0000201,0.0000000,0.0000000,0.0000040,0.0000000,0.0000000,0.0000000,0.0000201,0.0000000,0.0000000,0.0000040,0.0000000,0.0000000,0.0000000,0.0000201,0.0000000,0.0000000,0.0000040
424.2111880,0.9999500,,-0.9991134,0.0420117,-0.0011633,0.0024573,-0.0002418,-0.0050180,-0.0006671,,,,0.2130947,4.8164411,-15.9049215,0.0000000,0.0000000,0.0000000,0.0199990,0.0002022,0.0000000,0.0000000,0.0000202,0.0000000,0.0000000,0.0000000,0.0002022,0.0000000,0.0000000,0.0000202,0.0000000,0.0000000,0.0000000,0.0002022,0.0000000,0.0000000,0.0000202,0.0000202,0.0000000,0.0000000,0.0000040,0.0000000,0.0000000,0.0000000,0.0000202,0.0000000,0.0000000,0.0000040,0.0000000,0.0000000,0.0000000,0.0000202,0.0000000,0.0000000,0.0000040
424.2299340,1.0000000,,-0.9991134,0.0420117,-0.0011625,0.0024636,0.0002911,0.0002528,-0.0064371,,,,0.2130947,4.8164411,-15.9049215,0.0000000,0.0000000,0.0000000,0.0200000,0.0002030,0.0000000,0.0000000,0.0000203,0.0000000,0.0000000,0.0000000,0.0002030,0.0000000,0.0000000,0.0000203,0.0000000,0.0000000,0.0000000,0.0002030,0.0000000,0.0000000,0.0000203,0.0000203,0.0000000,0.0000000,0.0000040,0.0000000,0.0000000,0.0000000,0.0000203,0.0000000,0.0000000,0.0000040,0.0000000,0.0000000,0.0000000,0.0000203,0.0000000,0.0000000,0.0000040
424.2456360,,1.0200399,-0.9991134,0.0420117,-0.0011625,0.0024636,,,,0.0000000,0.0000000,0.0000000,0.2130947,4.8164411,-15.9049215,0.0000000,0.0000000,0.0000000,0.1020040,0.0001989,0.0000000,0.0000000,0.0000199,0.0000000,0.0000000,0.0000000,0.0001989,0.0000000,0.0000000,0.0000199,0.0000000,0.0000000,0.0000000,0.0001989,0.0000000,0.0000000,0.0000199,0.0000199,0.0000000,0.0000000,0.0000040,0.0000000,0.0000000,0.0000000,0.0000199,0.0000000,0.0000000,0.0000040,0.0000000,0.0000000,0.0000000,0.0000199,0.0000000,0.0000000,0.0000040
424.2593820,1.0000501,,-0.9991134,0.0420117,-0.0011672,0.0024638,-0.0014032,0.0048414,0.0004436,,,,0.2130947,4.8164411,-15.9049215,0.0000000,0.0000000,0.0000000,0.0200010,0.0001997,0.0000000,0.0000000,0.0000200,0.0000000,0.0000000,0.0000000,0.0001997,0.0000000,0.0000000,0.0000200,0.0000000,0.0000000,0.0000000,0.0001997,0.0000000,0.0000000,0.0000200,0.0000200,0.0000000,0.0000000,0.0000040,0.0000000,0.0000000,0.0000000,0.0000200,0.0000000,0.0000000,0.0000040,0.0000000,0.0000000,0.0000000,0.0000200,0.0000000,0.0000000,0.0000040
424.2726130,1.1499500,,-0.9991134,0.0420117,-0.0011838,0.0024412,-0.0030133,0.0014746,0.0085226,,,,0.2130947,4.8164411,-15.9049215,0.0000000,0.0000000,0.0000000,0.0229990,0.0002006,0.0000000,0.0000000,0.0000200,0.0000000,0.0000000,0.0000000,0.0002006,0.0000000,0.0000000,0.0000200,0.0000000,0.0000000,0.0000000,0.0002006,0.0000000,0.0000000,0.0000200,0.0000200,0.0000000,0.0000000,0.0000040,0.0000000,0.0000000,0.0000000,0.0000200,0.0000000,0.0000000,0.0000040,0.0000000,0.0000000,0.0000000,0.0000200,0.0000000,0.0000000,0.0000040
424.2937740,1.0501001,,-0.9991135,0.0420116,-0.0012142,0.0024076,0.0032159,0.0024310,0.0045054,,,,0.2130947,4.8164411,-15.9049215,0.0000000,0.0000000,0.0000000,0.0210020,0.0002015,0.0000000,0.0000000,0.0000201,0.0000000,0.0000000,0.0000000,0.0002015,0.0000000,0.0000000,0.0000201,0.0000000,0.0000000,0.0000000,0.0002015,0.0000000,0.0000000,0.0000201,0.0000201,0.0000000,0.0000000,0.0000040,0.0000000,0.0000000,0.0000000,0.0000201,0.0000000,0.0000000,0.0000040,0.0000000,0.0000000,0.0000000,0.0000201,0.0000000,0.0000000,0.0000040
424.3151610,1.0500000,,-0.9991135,0.0420115,-0.0012447,0.0023908,0.0050793,0.0029092,0.0015203,,,,0.2130947,4.8164411,-15.9049215,0.0000000,0.0000000,0.0000000,0.0210000,0.0002023,0.0000000,0.0000000,0.0000202,0.0000000,0.0000000,0.0000000,0.0002023,0.0000000,0.0000000,0.0000202,0.0000000,0.0000000,0.0000000,0.0002023,0.0000000,0.0000000,0.0000202,0.0000202,0.0000000,0.0000000,0.0000040,0.0000000,0.0000000,0.0000000,0.0000202,0.0000000,0.0000000,0.0000040,0.0000000,0.0000000,0.0000000,0.0000202,0.0000000,0.0000000,0.0000040
424.3349040,0.9999500,,-0.9991135,0.0420115,-0.0012488,0.0023916,0.0055457,0.0009740,0.0014926,,,,0.2130947,4.8164411,-15.9049215,0.0000000,0.0000000,0.0000000,0.0199990,0.0002031,0.0000000,0.0000000,0.0000203,0.0000000,0.0000000,0.0000000,0.0002031,0.0000000,0.0000000,0.0000203,0.0000000,0.0000000,0.0000000,0.0002031,0.0000000,0.0000000,0.0000203,0.0000203,0.0000000,0.0000000,0.0000040,0.0000000,0.0000000,0.0000000,0.0000203,0.0000000,0.0000000,0.0000040,0.0000000,0.0000000,0.0000000,0.0000203,0.0000000,0.0000000,0.0000040
424.3506270,,1.0000499,-0.9991135,0.0420115,-0.0012488,0.0023916,,,,0.0000000,0.0000000,0.0000000,0.2130947,4.8164411,-15.9049215,0.0000000,0.0000000,0.0000000,0.1000050,0.0001991,0.0000000,0.0000000,0.0000199,0.0000000,0.0000000,0.0000000,0.0001991,0.0000000,0.0000000,0.0000199,0.0000000,0.0000000,0.0000000,0.0001991,0.0000000,0.0000000,0.0000199,0.0000199,0.0000000,0.0000000,0.0000040,0.0000000,0.0000000,0.0000000,0.0000199,0.0000000,0.0000000,0.0000040,0.0000000,0.0000000,0.0000000,0.0000199,0.0000000,0.0000000,0.0000040
424.3643180,1.0000000,,-0.9991134,0.0420115,-0.0012423,0.0024140,-0.0003094,-0.0043500,0.0036760,,,,0.2130947,4.8164411,-15.9049215,0.0000000,0.0000000,0.0000000,0.0200000,0.0001999,0.0000000,0.0000000,0.0000200,0.0000000,0.0000000,0.0000000,0.0001999,0.0000000,0.0000000,0.0000200,0.0000000,0.0000000,0.0000000,0.0001999,0.0000000,0.0000000,0.0000200,0.0000200,0.0000000,0.0000000,0.0000040,0.0000000,0.0000000,0.0000000,0.0000200,0.0000000,0.0000000,0.0000040,0.0000000,0.0000000,0.0000000,0.0000200,0.0000000,0.0000000,0.0000040
424.3776250,1.1499500,,-0.9991133,0.0420115,-0.0012742,0.0024577,0.0042627,-0.0074317,0.0032952,,,,0.2130947,4.8164411,-15.9049215,0.0000000,0.0000000,0.0000000,0.0229990,0.0002008,0.0000000,0.0000000,0.0000201,0.0000000,0.0000000,0.0000000,0.0002008,0.0000000,0.0000000,0.0000201,0.0000000,0.0000000,0.0000000,0.0002008,0.0000000,0.0000000,0.0000201,0.0000201,0.0000000,0.0000000,0.0000040,0.0000000,0.0000000,0.0000000,0.0000201,0.0000000,0.0000000,0.0000040,0.0000000,0.0000000,0.0000000,0.0000201,0.0000000,0.0000000,0.0000040
424.3987600,1.0500500,,-0.9991132,0.0420115,-0.0012831,0.0024851,0.0002164,-0.0004123,-0.0017780,,,,0.2130947,4.8164411,-15.9049215,0.0000000,0.0000000,0.0000000,0.0210010,0.0002016,0.0000000,0.0000000,0.0000201,0.0000000,0.0000000,0.0000000,0.0002016,0.0000000,0.0000000,0.0000201,0.0000000,0.0000000,0.0000000,0.0002016,0.0000000,0.0000000,0.0000201,0.0000201,0.0000000,0.0000000,0.0000040,0.0000000,0.0000000,0.0000000,0.0000201,0.0000000,0.0000000,0.0000040,0.0000000,0.0000000,0.0000000,0.0000201,0.0000000,0.0000000,0.0000040
424.4211860,1.0500500,,-0.9991132,0.0420115,-0.0013076,0.0024902,0.0001082,-0.0022890,-0.0084650,,,,0.2130947,4.8164411,-15.9049215,0.0000000,0.0000000,0.0000000,0.0210010,0.0002025,0.0000000,0.0000000,0.0000202,0.0000000,0.0000000,0.0000000,0.0002025,0.0000000,0.0000000,0.0000202,0.0000000,0.0000000,0.0000000,0.0002025,0.0000000,0.0000000,0.0000202,0.0000202,0.0000000,0.0000000,0.0000040,0.0000000,0.0000000,0.0000000,0.0000202,0.0000000,0.0000000,0.0000040,0.0000000,0.0000000,0.0000000,0.0000202,0.0000000,0.0000000,0.0000040
424.4390350,,0.9999100,-0.9991132,0.0420115,-0.0013086,0.0024786,,,,0.0000000,0.0000000,0.0000000,0.2130947,4.8164411,-15.9049215,0.0000000,0.0000000,0.0000000,0.0999910,0.0001985,0.0000000,0.0000000,0.0000198,0.0000000,0.0000000,0.0000000,0.0001985,0.0000000,0.0000000,0.0000198,0.0000000,0.0000000,0.0000000,0.0001985,0.0000000,0.0000000,0.0000198,0.0000198,0.0000000,0.0000000,0.0000040,0.0000000,0.0000000,0.0000000,0.0000198,0.0000000,0.0000000,0.0000040,0.0000000,0.0000000,0.0000000,0.0000198,0.0000000,0.0000000,0.0000040
424.4527890,1.0001501,,-0.9991132,0.0420115,-0.0013086,0.0024786,-0.0082238,0.0011367,-0.0127850,,,,0.2130947,4.8164411,-15.9049215,0.0000000,0.0000000,0.0000000,0.0200030,0.0001993,0.0000000,0.0000000,0.0000199,0.0000000,0.0000000,0.0000000,0.0001993,0.0000000,0.0000000,0.0000199,0.0000000,0.0000000,0.0000000,0.0001993,0.0000000,0.0000000,0.0000199,0.0000199,0.0000000,0.0000000,0.0000040,0.0000000,0.0000000,0.0000000,0.0000199,0.0000000,0.0000000,0.0000040,0.0000000,0.0000000,0.0000000,0.0000199,0.0000000,0.0000000,0.0000040
424.4655150,1.3001500,,-0.9991131,0.0420115,-0.0013092,0.0024992,-0.0104367,-0.0039330,-0.0029822,,,,0.2130947,4.8164411,-15.9049215,0.0000000,0.0000000,0.0000000,0.0260030,0.0002003,0.0000000,0.0000000,0.0000200,0.0000000,0.0000000,0.0000000,0.0002003,0.0000000,0.0000000,0.0000200,0.0000000,0.0000000,0.0000000,0.0002003,0.0000000,0.0000000,0.0000200,0.0000200,0.0000000,0.0000000,0.0000040,0.0000000,0.0000000,0.0000000,0.0000200,0.0000000,0.0000000,0.0000040,0.0000000,0.0000000,0.0000000,0.0000200,0.0000000,0.0000000,0.0000040
424.4867840,1.0497000,,-0.9991132,0.0420115,-0.0013229,0.0024850,-0.0049818,0.0025120,-0.0022311,,,,0.2130947,4.8164411,-15.9049215,0.0000000,0.0000000,0.0000000,0.0209940,0.0002011,0.0000000,0.0000000,0.0000201,0.0000000,0.0000000,0.0000000,0.0002011,0.0000000,0.0000000,0.0000201,0.0000000,0.0000000,0.0000000,0.0002011,0.0000000,0.0000000,0.0000201,0.0000201,0.0000000,0.0000000,0.0000040,0.0000000,0.0000000,0.0000000,0.0000201,0.0000000,0.0000000,0.0000040,0.0000000,0.0000000,0.0000000,0.0000201,0.0000000,0.0000000,0.0000040
424.5071730,1.0003999,,-0.9991132,0.0420114,-0.0013372,0.0024721,-0.0039786,0.0001116,-0.0042970,,,,0.2130947,4.8164411,-15.9049215,0.0000000,0.0000000,0.0000000,0.0200080,0.0002020,0.0000000,0.0000000,0.0000202,0.0000000,0.0000000,0.0000000,0.0002020,0.0000000,0.0000000,0.0000202,0.0000000,0.0000000,0.0000000,0.0002020,0.0000000,0.0000000,0.0000202,0.0000202,0.0000000,0.0000000,0.0000040,0.0000000,0.0000000,0.0000000,0.0000202,0.0000000,0.0000000,0.0000040,0.0000000,0.0000000,0.0000000,0.0000202,0.0000000,0.0000000,0.0000040
424.5269810,0.9999000,,-0.9991131,0.0420114,-0.0013594,0.0024794,-0.0010662,-0.0005698,-0.0016679,,,,0.2130947,4.8164411,-15.9049215,0.0000000,0.0000000,0.0000000,0.0199980,0.0002028,0.0000000,0.0000000,0.0000203,0.0000000,0.0000000,0.0000000,0.0002028,0.0000000,0.0000000,0.0000203,0.0000000,0.0000000,0.0000000,0.0002028,0.0000000,0.0000000,0.0000203,0.0000203,0.0000000,0.0000000,0.0000040,0.0000000,0.0000000,0.0000000,0.0000203,0.0000000,0.0000000,0.0000040,0.0000000,0.0000000,0.0000000,0.0000203,0.0000000,0.0000000,0.0000040
424.5429720,,1.0000000,-0.9991131,0.0420114,-0.0013594,0.0024794,,,,0.0000000,0.0000000,0.0000000,0.2130947,4.8164411,-15.9049215,0.0000000,0.0000000,0.0000000,0.1000000,0.0001987,0.0000000,0.0000000,0.0000199,0.0000000,0.0000000,0.0000000,0.0001987,0.0000000,0.0000000,0.0000199,0.0000000,0.0000000,0.0000000,0.0001987,0.0000000,0.0000000,0.0000199,0.0000199,0.0000000,0.0000000,0.0000040,0.0000000,0.0000000,0.0000000,0.0000199,0.0000000,0.0000000,0.0000040,0.0000000,0.0000000,0.0000000,0.0000199,0.0000000,0.0000000,0.0000040
424.5565700,1.0000000,,-0.9991131,0.0420114,-0.0013642,0.0024811,-0.0047216,-0.0001857,-0.0025505,,,,0.2130947,4.8164411,-15.9049215,0.0000000,0.0000000,0.0000000,0.0200000,0.0001995,0.0000000,0.0000000,0.0000199,0.0000000,0.0000000,0.0000000,0.0001995,0.0000000,0.0000000,0.0000199,0.0000000,0.0000000,0.0000000,0.0001995,0.0000000,0.0000000,0.0000199,0.0000199,0.0000000,0.0000000,0.0000040,0.0000000,0.0000000,0.0000000,0.0000199,0.0000000,0.0000000,0.0000040,0.0000000,0.0000000,0.0000000,0.0000199,0.0000000,0.0000000,0.0000040
424.5696150,1.1496000,,-0.9991131,0.0420114,-0.0013619,0.0024697,-0.0072741,-0.0007490,0.0016468,,,,0.2130947,4.8164411,-15.9049215,0.0000000,0.0000000,0.0000000,0.0229920,0.0002004,0.0000000,0.0000000,0.0000200,0.0000000,0.0000000,0.0000000,0.0002004,0.0000000,0.0000000,0.0000200,0.0000000,0.0000000,0.0000000,0.0002004,0.0000000,0.0000000,0.0000200,0.0000200,0.0000000,0.0000000,0.0000040,0.0000000,0.0000000,0.0000000,0.0000200,0.0000000,0.0000000,0.0000040,0.0000000,0.0000000,0.0000000,0.0000200,0.0000000,0.0000000,0.0000040
424.5909170,1.0500500,,-0.9991131,0.0420114,-0.0013736,0.0024730,-0.0039346,-0.0071189,0.0013040,,,,0.2130947,4.8164411,-15.9049215,0.0000000,0.0000000,0.0000000,0.0210010,0.0002013,0.0000000,0.0000000,0.0000201,0.0000000,0.0000000,0.0000000,0.0002013,0.0000000,0.0000000,0.0000201,0.0000000,0.0000000,0.0000000,0.0002013,0.0000000,0.0000000,0.0000201,0.0000201,0.0000000,0.0000000,0.0000040,0.0000000,0.0000000,0.0000000,0.0000201,0.0000000,0.0000000,0.0000040,0.0000000,0.0000000,0.0000000,0.0000201,0.0000000,0.0000000,0.0000040
424.6121960,1.0002501,,-0.9991131,0.0420114,-0.0013561,0.0024856,-0.0024632,-0.0061305,0.0045506,,,,0.2130947,4.8164411,-15.9049215,0.0000000,0.0000000,0.0000000,0.0200050,0.0002021,0.0000000,0.0000000,0.0000202,0.0000000,0.0000000,0.0000000,0.0002021,0.0000000,0.0000000,0.0000202,0.0000000,0.0000000,0.0000000,0.0002021,0.0000000,0.0000000,0.0000202,0.0000202,0.0000000,0.0000000,0.0000040,0.0000000,0.0000000,0.0000000,0.0000202,0.0000000,0.0000000,0.0000040,0.0000000,0.0000000,0.0000000,0.0000202,0.0000000,0.0000000,0.0000040
424.6309380,1.0001000,,-0.9991131,0.0420115,-0.0013353,0.0024799,0.0029340,0.0041064,0.0113009,,,,0.2130947,4.8164411,-15.9049215,0.0000000,0.0000000,0.0000000,0.0200020,0.0002029,0.0000000,0.0000000,0.0000203,0.0000000,0.0000000,0.0000000,0.0002029,0.0000000,0.0000000,0.0000203,0.0000000,0.0000000,0.0000000,0.0002029,0.0000000,0.0000000,0.0000203,0.0000203,0.0000000,0.0000000,0.0000040,0.0000000,0.0000000,0.0000000,0.0000203,0.0000000,0.0000000,0.0000040,0.0000000,0.0000000,0.0000000,0.0000203,0.0000000,0.0000000,0.0000040
424.6468990,,1.0200000,-0.9991131,0.0420115,-0.0013353,0.0024799,,,,0.0000000,0.0000000,0.0000000,0.2130947,4.8164411,-15.9049215,0.0000000,0.0000000,0.0000000,0.1020000,0.0001989,0.0000000,0.0000000,0.0000199,0.0000000,0.0000000,0.0000000,0.0001989,0.0000000,0.0000000,0.0000199,0.0000000,0.0000000,0.0000000,0.0001989,0.0000000,0.0000000,0.0000199,0.0000199,0.0000000,0.0000000,0.0000040,0.0000000,0.0000000,0.0000000,0.0000199,0.0000000,0.0000000,0.0000040,0.0000000,0.0000000,0.0000000,0.0000199,0.0000000,0.0000000,0.0000040
424.6608050,1.0000000,,-0.9991132,0.0420115,-0.0013346,0.0024550,0.0043891,0.0035638,0.0034456,,,,0.2130947,4.8164411,-15.9049215,0.0000000,0.0000000,0.0000000,0.0200000,0.0001997,0.0000000,0.0000000,0.0000199,0.0000000,0.0000000,0.0000000,0.0001997,0.0000000,0.0000000,0.0000199,0.0000000,0.0000000,0.0000000,0.0001997,0.0000000,0.0000000,0.0000199,0.0000199,0.0000000,0.0000000,0.0000040,0.0000000,0.0000000,0.0000000,0.0000199,0.0000000,0.0000000,0.0000040,0.0000000,0.0000000,0.0000000,0.0000199,0.0000000,0.0000000,0.0000040
424.6737490,1.1496000,,-0.9991133,0.0420115,-0.0013055,0.0024152,0.0022403,0.0049481,-0.0046249,,,,0.2130947,4.8164411,-15.9049215,0.0000000,0.0000000,0.0000000,0.0229920,0.0002006,0.0000000,0.0000000,0.0000200,0.0000000,0.0000000,0.0000000,0.0002006,0.0000000,0.0000000,0.0000200,0.0000000,0.0000000,0.0000000,0.0002006,0.0000000,0.0000000,0.0000200,0.0000200,0.0000000,0.0000000,0.0000040,0.0000000,0.0000000,0.0000000,0.0000200,0.0000000,0.0000000,0.0000040,0.0000000,0.0000000,0.0000000,0.0000200,0.0000000,0.0000000,0.0000040
424.6946260,1.0502001,,-0.9991134,0.0420115,-0.0012868,0.0023994,-0.0037016,0.0017416,-0.0025566,,,,0.2130947,4.8164411,-15.9049215,0.0000000,0.0000000,0.0000000,0.0210040,0.0002014,0.0000000,0.0000000,0.0000201,0.0000000,0.0000000,0.0000000,0.0002014,0.0000000,0.0000000,0.0000201,0.0000000,0.0000000,0.0000000,0.0002014,0.0000000,0.0000000,0.0000201,0.0000201,0.0000000,0.0000000,0.0000040,0.0000000,0.0000000,0.0000000,0.0000201,0.0000000,0.0000000,0.0000040,0.0000000,0.0000000,0.0000000,0.0000201,0.0000000,0.0000000,0.0000040
424.7161660,1.0500000,,-0.9991134,0.0420116,-0.0012834,0.0024031,-0.0013168,-0.0003270,-0.0034756,,,,0.2130947,4.8164411,-15.9049215,0.0000000,0.0000000,0.0000000,0.0210000,0.0002023,0.0000000,0.0000000,0.0000202,0.0000000,0.0000000,0.0000000,0.0002023,0.0000000,0.0000000,0.0000202,0.0000000,0.0000000,0.0000000,0.0002023,0.0000000,0.0000000,0.0000202,0.0000202,0.0000000,0.0000000,0.0000040,0.0000000,0.0000000,0.0000000,0.0000202,0.0000000,0.0000000,0.0000040,0.0000000,0.0000000,0.0000000,0.0000202,0.0000000,0.0000000,0.0000040
424.7359280,0.9999500,,-0.9991133,0.0420116,-0.0012731,0.0024327,-0.0003456,-0.0078997,-0.0080931,,,,0.2130947,4.8164411,-15.9049215,0.0000000,0.0000000,0.0000000,0.0199990,0.0002031,0.0000000,0.0000000,0.0000203,0.0000000,0.0000000,0.0000000,0.0002031,0.0000000,0.0000000,0.0000203,0.0000000,0.0000000,0.0000000,0.0002031,0.0000000,0.0000000,0.0000203,0.0000203,0.0000000,0.0000000,0.0000040,0.0000000,0.0000000,0.0000000,0.0000203,0.0000000,0.0000000,0.0000040,0.0000000,0.0000000,0.0000000,0.0000203,0.0000000,0.0000000,0.0000040
424.7516810,,1.0201200,-0.9991133,0.0420116,-0.0012731,0.0024327,,,,0.0000000,0.0000000,0.0000000,0.2130947,4.8164411,-15.9049215,0.0000000,0.0000000,0.0000000,0.1020120,0.0001990,0.0000000,0.0000000,0.0000199,0.0000000,0.0000000,0.0000000,0.0001990,0.0000000,0.0000000,0.0000199,0.0000000,0.0000000,0.0000000,0.0001990,0.0000000,0.0000000,0.0000199,0.0000199,0.0000000,0.0000000,0.0000040,0.0000000,0.0000000,0.0000000,0.0000199,0.0000000,0.0000000,0.0000040,0.0000000,0.0000000,0.0000000,0.0000199,0.0000000,0.0000000,0.0000040
424.7653650,1.0002501,,-0.9991133,0.0420117,-0.0012658,0.0024308,0.0025814,-0.0051248,-0.0064879,,,,0.2130947,4.8164411,-15.9049215,0.0000000,0.0000000,0.0000000,0.0200050,0.0001998,0.0000000,0.0000000,0.0000200,0.0000000,0.0000000,0.0000000,0.0001998,0.0000000,0.0000000,0.0000200,0.0000000,0.0000000,0.0000000,0.0001998,0.0000000,0.0000000,0.0000200,0.0000200,0.0000000,0.0000000,0.0000040,0.0000000,0.0000000,0.0000000,0.0000200,0.0000000,0.0000000,0.0000040,0.0000000,0.0000000,0.0000000,0.0000200,0.0000000,0.0000000,0.0000040
424.7787470,1.1496500,,-0.9991133,0.0420116,-0.0012879,0.0024146,0.0039915,-0.0023030,-0.0020233,,,,0.2130947,4.8164411,-15.9049215,0.0000000,0.0000000,0.0000000,0.0229930,0.0002007,0.0000000,0.0000000,0.0000201,0.0000000,0.0000000,0.0000000,0.0002007,0.0000000,0.0000000,0.0000201,0.0000000,0.0000000,0.0000000,0.0002007,0.0000000,0.0000000,0.0000201,0.0000201,0.0000000,0.0000000,0.0000040,0.0000000,0.0000000,0.0000000,0.0000201,0.0000000,0.0000000,0.0000040,0.0000000,0.0000000,0.0000000,0.0000201,0.0000000,0.0000000,0.0000040
424.8001720,1.0500000,,-0.9991133,0.0420115,-0.0013122,0.0024022,0.0041854,-0.0004114,-0.0032089,,,,0.2130947,4.8164411,-15.9049215,0.0000000,0.0000000,0.0000000,0.0210000,0.0002016,0.0000000,0.0000000,0.0000201,0.0000000,0.0000000,0.0000000,0.0002016,0.0000000,0.0000000,0.0000201,0.0000000,0.0000000,0.0000000,0.0002016,0.0000000,0.0000000,0.0000201,0.0000201,0.0000000,0.0000000,0.0000040,0.0000000,0.0000000,0.0000000,0.0000201,0.0000000,0.0000000,0.0000040,0.0000000,0.0000000,0.0000000,0.0000201,0.0000000,0.0000000,0.0000040
424.8198310,1.0000000,,-0.9991134,0.0420115,-0.0013220,0.0023788,-0.0027977,0.0039142,-0.0016044,,,,0.2130947,4.8164411,-15.9049215,0.0000000,0.0000000,0.0000000,0.0200000,0.0002024,0.0000000,0.0000000,0.0000202,0.0000000,0.0000000,0.0000000,0.0002024,0.0000000,0.0000000,0.0000202,0.0000000,0.0000000,0.0000000,0.0002024,0.0000000,0.0000000,0.0000202,0.0000202,0.0000000,0.0000000,0.0000040,0.0000000,0.0000000,0.0000000,0.0000202,0.0000000,0.0000000,0.0000040,0.0000000,0.0000000,0.0000000,0.0000202,0.0000000,0.0000000,0.0000040
424.8398350,1.0000501,,-0.9991134,0.0420115,-0.0013157,0.0023743,0.0000812,0.0021860,0.0006626,,,,0.2130947,4.8164411,-15.9049215,0.0000000,0.0000000,0.0000000,0.0200010,0.0002032,0.0000000,0.0000000,0.0000203,0.0000000,0.0000000,0.0000000,0.0002032,0.0000000,0.0000000,0.0000203,0.0000000,0.0000000,0.0000000,0.0002032,0.0000000,0.0000000,0.0000203,0.0000203,0.0000000,0.0000000,0.0000040,0.0000000,0.0000000,0.0000000,0.0000203,0.0000000,0.0000000,0.0000040,0.0000000,0.0000000,0.0000000,0.0000203,0.0000000,0.0000000,0.0000040
424.8555850,,0.9998900,-0.9991134,0.0420115,-0.0013157,0.0023743,,,,0.0000000,0.0000000,0.0000000,0.2130947,4.8164411,-15.9049215,0.0000000,0.0000000,0.0000000,0.0999890,0.0001991,0.0000000,0.0000000,0.0000199,0.0000000,0.0000000,0.0000000,0.0001991,0.0000000,0.0000000,0.0000199,0.0000000,0.0000000,0.0000000,0.0001991,0.0000000,0.0000000,0.0000199,0.0000199,0.0000000,0.0000000,0.0000040,0.0000000,0.0000000,0.0000000,0.0000199,0.0000000,0.0000000,0.0000040,0.0000000,0.0000000,0.0000000,0.0000199,0.0000000,0.0000000,0.0000040
424.8696210,0.9999500,,-0.9991134,0.0420115,-0.0013097,0.0023687,-0.0014013,-0.0033244,-0.0008894,,,,0.2130947,4.8164411,-15.9049215,0.0000000,0.0000000,0.0000000,0.0199990,0.0001999,0.0000000,0.0000000,0.0000200,0.0000000,0.0000000,0.0000000,0.0001999,0.0000000,0.0000000,0.0000200,0.0000000,0.0000000,0.0000000,0.0001999,0.0000000,0.0000000,0.0000200,0.0000200,0.0000000,0.0000000,0.0000040,0.0000000,0.0000000,0.0000000,0.0000200,0.0000000,0.0000000,0.0000040,0.0000000,0.0000000,0.0000000,0.0000200,0.0000000,0.0000000,0.0000040
424.8825920,1.1500000,,-0.9991135,0.0420115,-0.0013012,0.0023473,-0.0023791,0.0051127,0.0027291,,,,0.2130947,4.8164411,-15.9049215,0.0000000,0.0000000,0.0000000,0.0230000,0.0002009,0.0000000,0.0000000,0.0000201,0.0000000,0.0000000,0.0000000,0.0002009,0.0000000,0.0000000,0.0000201,0.0000000,0.0000000,0.0000000,0.0002009,0.0000000,0.0000000,0.0000201,0.0000201,0.0000000,0.0000000,0.0000040,0.0000000,0.0000000,0.0000000,0.0000201,0.0000000,0.0000000,0.0000040,0.0000000,0.0000000,0.0000000,0.0000201,0.0000000,0.0000000,0.0000040
424.9039410,1.0500500,,-0.9991136,0.0420115,-0.0013012,0.0023227,0.0017630,0.0041814,-0.0035182,,,,0.2130947,4.8164411,-15.9049215,0.0000000,0.0000000,0.0000000,0.0210010,0.0002017,0.0000000,0.0000000,0.0000202,0.0000000,0.0000000,0.0000000,0.0002017,0.0000000,0.0000000,0.0000202,0.0000000,0.0000000,0.0000000,0.0002017,0.0000000,0.0000000,0.0000202,0.0000202,0.0000000,0.0000000,0.0000040,0.0000000,0.0000000,0.0000000,0.0000202,0.0000000,0.0000000,0.0000040,0.0000000,0.0000000,0.0000000,0.0000202,0.0000000,0.0000000,0.0000040
424.9237410,0.9999500,,-0.9991136,0.0420115,-0.0013049,0.0023079,0.0023616,0.0012667,-0.0005384,,,,0.2130947,4.8164411,-15.9049215,0.0000000,0.0000000,0.0000000,0.0199990,0.0002025,0.0000000,0.0000000,0.0000202,0.0000000,0.0000000,0.0000000,0.0002025,0.0000000,0.0000000,0.0000202,0.0000000,0.0000000,0.0000000,0.0002025,0.0000000,0.0000000,0.0000202,0.0000202,0.0000000,0.0000000,0.0000040,0.0000000,0.0000000,0.0000000,0.0000202,0.0000000,0.0000000,0.0000040,0.0000000,0.0000000,0.0000000,0.0000202,0.0000000,0.0000000,0.0000040
424.9454390,,1.0100100,-0.9991136,0.0420115,-0.0013057,0.0023039,,,,0.0000000,0.0000000,0.0000000,0.2130947,4.8164411,-15.9049215,0.0000000,0.0000000,0.0000000,0.1010010,0.0001985,0.0000000,0.0000000,0.0000198,0.0000000,0.0000000,0.0000000,0.0001985,0.0000000,0.0000000,0.0000198,0.0000000,0.0000000,0.0000000,0.0001985,0.0000000,0.0000000,0.0000198,0.0000198,0.0000000,0.0000000,0.0000040,0.0000000,0.0000000,0.0000000,0.0000198,0.0000000,0.0000000,0.0000040,0.0000000,0.0000000,0.0000000,0.0000198,0.0000000,0.0000000,0.0000040
424.9587150,1.0001000,,-0.9991136,0.0420115,-0.0013057,0.0023039,0.0002195,-0.0006713,0.0031488,,,,0.2130947,4.8164411,-15.9049215,0.0000000,0.0000000,0.0000000,0.0200020,0.0001993,0.0000000,0.0000000,0.0000199,0.0000000,0.0000000,0.0000000,0.0001993,0.0000000,0.0000000,0.0000199,0.0000000,0.0000000,0.0000000,0.0001993,0.0000000,0.0000000,0.0000199,0.0000199,0.0000000,0.0000000,0.0000040,0.0000000,0.0000000,0.0000000,0.0000199,0.0000000,0.0000000,0.0000040,0.0000000,0.0000000,0.0000000,0.0000199,0.0000000,0.0000000,0.0000040
424.9718070,1.3998500,,-0.9991136,0.0420115,-0.0013235,0.0023048,0.0020476,-0.0033416,-0.0006229,,,,0.2130947,4.8164411,-15.9049215,0.0000000,0.0000000,0.0000000,0.0279970,0.0002004,0.0000000,0.0000000,0.0000200,0.0000000,0.0000000,0.0000000,0.0002004,0.0000000,0.0000000,0.0000200,0.0000000,0.0000000,0.0000000,0.0002004,0.0000000,0.0000000,0.0000200,0.0000200,0.0000000,0.0000000,0.0000040,0.0000000,0.0000000,0.0000000,0.0000200,0.0000000,0.0000000,0.0000040,0.0000000,0.0000000,0.0000000,0.0000200,0.0000000,0.0000000,0.0000040
424.9921640,1.0003500,,-0.9991136,0.0420114,-0.0013333,0.0022979,0.0010009,0.0006790,-0.0005556,,,,0.2130947,4.8164411,-15.9049215,0.0000000,0.0000000,0.0000000,0.0200070,0.0002012,0.0000000,0.0000000,0.0000201,0.0000000,0.0000000,0.0000000,0.0002012,0.0000000,0.0000000,0.0000201,0.0000000,0.0000000,0.0000000,0.0002012,0.0000000,0.0000000,0.0000201,0.0000201,0.0000000,0.0000000,0.0000040,0.0000000,0.0000000,0.0000000,0.0000201,0.0000000,0.0000000,0.0000040,0.0000000,0.0000000,0.0000000,0.0000201,0.0000000,0.0000000,0.0000040
425.0118070,1.0000501,,-0.9991136,0.0420114,-0.0013434,0.0022807,0.0048645,0.0041237,-0.0022309,,,,0.2130947,4.8164411,-15.9049215,0.0000000,0.0000000,0.0000000,0.0200010,0.0002020,0.0000000,0.0000000,0.0000202,0.0000000,0.0000000,0.0000000,0.0002020,0.0000000,0.0000000,0.0000202,0.0000000,0.0000000,0.0000000,0.0002020,0.0000000,0.0000000,0.0000202,0.0000202,0.0000000,0.0000000,0.0000040,0.0000000,0.0000000,0.0000000,0.0000202,0.0000000,0.0000000,0.0000040,0.0000000,0.0000000,0.0000000,0.0000202,0.0000000,0.0000000,0.0000040
425.0319640,1.0000000,,-0.9991136,0.0420114,-0.0013639,0.0022729,0.0123810,-0.0009823,-0.0047776,,,,0.2130947,4.8164411,-15.9049215,0.0000000,0.0000000,0.0000000,0.0200000,0.0002028,0.0000000,0.0000000,0.0000203,0.0000000,0.0000000,0.0000000,0.0002028,0.0000000,0.0000000,0.0000203,0.0000000,0.0000000,0.0000000,0.0002028,0.0000000,0.0000000,0.0000203,0.0000203,0.0000000,0.0000000,0.0000040,0.0000000,0.0000000,0.0000000,0.0000203,0.0000000,0.0000000,0.0000040,0.0000000,0.0000000,0.0000000,0.0000203,0.0000000,0.0000000,0.0000040
425.0476600,,0.9999800,-0.9991136,0.0420114,-0.0013639,0.0022729,,,,0.0000000,0.0000000,0.0000000,0.2130947,4.8164411,-15.9049215,0.0000000,0.0000000,0.0000000,0.0999980,0.0001988,0.0000000,0.0000000,0.0000199,0.0000000,0.0000000,0.0000000,0.0001988,0.0000000,0.0000000,0.0000199,0.0000000,0.0000000,0.0000000,0.0001988,0.0000000,0.0000000,0.0000199,0.0000199,0.0000000,0.0000000,0.0000040,0.0000000,0.0000000,0.0000000,0.0000199,0.0000000,0.0000000,0.0000040,0.0000000,0.0000000,0.0000000,0.0000199,0.0000000,0.0000000,0.0000040
425.0615050,0.9997500,,-0.9991136,0.0420114,-0.0013571,0.0022745,0.0044510,-0.0035276,0.0034706,,,,0.2130947,4.8164411,-15.9049215,0.0000000,0.0000000,0.0000000,0.0199950,0.0001996,0.0000000,0.0000000,0.0000199,0.0000000,0.0000000,0.0000000,0.0001996,0.0000000,0.0000000,0.0000199,0.0000000,0.0000000,0.0000000,0.0001996,0.0000000,0.0000000,0.0000199,0.0000199,0.0000000,0.0000000,0.0000040,0.0000000,0.0000000,0.0000000,0.0000199,0.0000000,0.0000000,0.0000040,0.0000000,0.0000000,0.0000000,0.0000199,0.0000000,0.0000000,0.0000040
425.0746960,1.1499000,,-0.9991137,0.0420114,-0.0013539,0.0022677,-0.0026878,0.0029969,0.0017353,,,,0.2130947,4.8164411,-15.9049215,0.0000000,0.0000000,0.0000000,0.0229980,0.0002005,0.0000000,0.0000000,0.0000200,0.0000000,0.0000000,0.0000000,0.0002005,0.0000000,0.0000000,0.0000200,0.0000000,0.0000000,0.0000000,0.0002005,0.0000000,0.0000000,0.0000200,0.0000200,0.0000000,0.0000000,0.0000040,0.0000000,0.0000000,0.0000000,0.0000200,0.0000000,0.0000000,0.0000040,0.0000000,0.0000000,0.0000000,0.0000200,0.0000000,0.0000000,0.0000040
425.0959210,1.0500500,,-0.9991137,0.0420114,-0.0013539,0.0022673,-0.0045483,0.0023606,0.0035532,,,,0.2130947,4.8164411,-15.9049215,0.0000000,0.0000000,0.0000000,0.0210010,0.0002013,0.0000000,0.0000000,0.0000201,0.0000000,0.0000000,0.0000000,0.0002013,0.0000000,0.0000000,0.0000201,0.0000000,0.0000000,0.0000000,0.0002013,0.0000000,0.0000000,0.0000201,0.0000201,0.0000000,0.0000000,0.0000040,0.0000000,0.0000000,0.0000000,0.0000201,0.0000000,0.0000000,0.0000040,0.0000000,0.0000000,0.0000000,0.0000201,0.0000000,0.0000000,0.0000040
425.1159440,1.0002000,,-0.9991137,0.0420114,-0.0013549,0.0022740,0.0011057,-0.0030693,0.0008000,,,,0.2130947,4.8164411,-15.9049215,0.0000000,0.0000000,0.0000000,0.0200040,0.0002021,0.0000000,0.0000000,0.0000202,0.0000000,0.0000000,0.0000000,0.0002021,0.0000000,0.0000000,0.0000202,0.0000000,0.0000000,0.0000000,0.0002021,0.0000000,0.0000000,0.0000202,0.0000202,0.0000000,0.0000000,0.0000040,0.0000000,0.0000000,0.0000000,0.0000202,0.0000000,0.0000000,0.0000040,0.0000000,0.0000000,0.0000000,0.0000202,0.0000000,0.0000000,0.0000040
425.1359850,1.0002000,,-0.9991136,0.0420114,-0.0013652,0.0022867,0.0012319,-0.0072338,0.0030856,,,,0.2130947,4.8164411,-15.9049215,0.0000000,0.0000000,0.0000000,0.0200040,0.0002029,0.0000000,0.0000000,0.0000203,0.0000000,0.0000000,0.0000000,0.0002029,0.0000000,0.0000000,0.0000203,0.0000000,0.0000000,0.0000000,0.0002029,0.0000000,0.0000000,0.0000203,0.0000203,0.0000000,0.0000000,0.0000040,0.0000000,0.0000000,0.0000000,0.0000203,0.0000000,0.0000000,0.0000040,0.0000000,0.0000000,0.0000000,0.0000203,0.0000000,0.0000000,0.0000040
425.1516920,,1.0000000,-0.9991136,0.0420114,-0.0013652,0.0022867,,,,0.0000000,0.0000000,0.0000000,0.2130947,4.8164411,-15.9049215,0.0000000,0.0000000,0.0000000,0.1000000,0.0001989,0.0000000,0.0000000,0.0000199,0.0000000,0.0000000,0.0000000,0.0001989,0.0000000,0.0000000,0.0000199,0.0000000,0.0000000,0.0000000,0.0001989,0.0000000,0.0000000,0.0000199,0.0000199,0.0000000,0.0000000,0.0000040,0.0000000,0.0000000,0.0000000,0.0000199,0.0000000,0.0000000,0.0000040,0.0000000,0.0000000,0.0000000,0.0000199,0.0000000,0.0000000,0.0000040
425.1653250,0.9999000,,-0.9991137,0.0420114,-0.0013673,0.0022670,-0.0013830,-0.0027777,0.0015428,,,,0.2130947,4.8164411,-15.9049215,0.0000000,0.0000000,0.0000000,0.0199980,0.0001997,0.0000000,0.0000000,0.0000200,0.0000000,0.0000000,0.0000000,0.0001997,0.0000000,0.0000000,0.0000200,0.0000000,0.0000000,0.0000000,0.0001997,0.0000000,0.0000000,0.0000200,0.0000200,0.0000000,0.0000000,0.0000040,0.0000000,0.0000000,0.0000000,0.0000200,0.0000000,0.0000000,0.0000040,0.0000000,0.0000000,0.0000000,0.0000200,0.0000000,0.0000000,0.0000040
425.1787910,1.1496500,,-0.9991137,0.0420115,-0.0013531,0.0022693,-0.0024157,-0.0049212,-0.0024024,,,,0.2130947,4.8164411,-15.9049215,0.0000000,0.0000000,0.0000000,0.0229930,0.0002006,0.0000000,0.0000000,0.0000200,0.0000000,0.0000000,0.0000000,0.0002006,0.0000000,0.0000000,0.0000200,0.0000000,0.0000000,0.0000000,0.0002006,0.0000000,0.0000000,0.0000200,0.0000200,0.0000000,0.0000000,0.0000040,0.0000000,0.0000000,0.0000000,0.0000200,0.0000000,0.0000000,0.0000040,0.0000000,0.0000000,0.0000000,0.0000200,0.0000000,0.0000000,0.0000040
425.1989220,0.9999500,,-0.9991137,0.0420115,-0.0013438,0.0022653,-0.0004907,-0.0020944,-0.0046192,,,,0.2130947,4.8164411,-15.9049215,0.0000000,0.0000000,0.0000000,0.0199990,0.0002014,0.0000000,0.0000000,0.0000201,0.0000000,0.0000000,0.0000000,0.0002014,0.0000000,0.0000000,0.0000201,0.0000000,0.0000000,0.0000000,0.0002014,0.0000000,0.0000000,0.0000201,0.0000201,0.0000000,0.0000000,0.0000040,0.0000000,0.0000000,0.0000000,0.0000201,0.0000000,0.0000000,0.0000040,0.0000000,0.0000000,0.0000000,0.0000201,0.0000000,0.0000000,0.0000040
425.2191380,1.0000501,,-0.9991137,0.0420115,-0.0013344,0.0022651,-0.0004971,-0.0011693,-0.0018213,,,,0.2130947,4.8164411,-15.9049215,0.0000000,0.0000000,0.0000000,0.0200010,0.0002022,0.0000000,0.0000000,0.0000202,0.0000000,0.0000000,0.0000000,0.0002022,0.0000000,0.0000000,0.0000202,0.0000000,0.0000000,0.0000000,0.0002022,0.0000000,0.0000000,0.0000202,0.0000202,0.0000000,0.0000000,0.0000040,0.0000000,0.0000000,0.0000000,0.0000202,0.0000000,0.0000000,0.0000040,0.0000000,0.0000000,0.0000000,0.0000202,0.0000000,0.0000000,0.0000040
425.2389030,0.9999500,,-0.9991137,0.0420115,-0.0013364,0.0022720,0.0016893,-0.0009356,-0.0033521,,,,0.2130947,4.8164411,-15.9049215,0.0000000,0.0000000,0.0000000,0.0199990,0.0002030,0.0000000,0.0000000,0.0000203,0.0000000,0.0000000,0.0000000,0.0002030,0.0000000,0.0000000,0.0000203,0.0000000,0.0000000,0.0000000,0.0002030,0.0000000,0.0000000,0.0000203,0.0000203,0.0000000,0.0000000,0.0000040,0.0000000,0.0000000,0.0000000,0.0000203,0.0000000,0.0000000,0.0000040,0.0000000,0.0000000,0.0000000,0.0000203,0.0000000,0.0000000,0.0000040
425.2546170,,1.0000401,-0.9991137,0.0420115,-0.0013364,0.0022720,,,,0.0000000,0.0000000,0.0000000,0.2130947,4.8164411,-15.9049215,0.0000000,0.0000000,0.0000000,0.1000040,0.0001990,0.0000000,0.0000000,0.0000199,0.0000000,0.0000000,0.0000000,0.0001990,0.0000000,0.0000000,0.0000199,0.0000000,0.0000000,0.0000000,0.0001990,0.0000000,0.0000000,0.0000199,0.0000199,0.0000000,0.0000000,0.0000040,0.0000000,0.0000000,0.0000000,0.0000199,0.0000000,0.0000000,0.0000040,0.0000000,0.0000000,0.0000000,0.0000199,0.0000000,0.0000000,0.0000040
425.2683200,1.0000501,,-0.9991136,0.0420115,-0.0013459,0.0022831,0.0010583,-0.0025125,0.0029626,,,,0.2130947,4.8164411,-15.9049215,0.0000000,0.0000000,0.0000000,0.0200010,0.0001998,0.0000000,0.0000000,0.0000200,0.0000000,0.0000000,0.0000000,0.0001998,0.0000000,0.0000000,0.0000200,0.0000000,0.0000000,0.0000000,0.0001998,0.0000000,0.0000000,0.0000200,0.0000200,0.0000000,0.0000000,0.0000040,0.0000000,0.0000000,0.0000000,0.0000200,0.0000000,0.0000000,0.0000040,0.0000000,0.0000000,0.0000000,0.0000200,0.0000000,0.0000000,0.0000040
425.2816400,1.1499500,,-0.9991136,0.0420115,-0.0013511,0.0022919,-0.0009662,0.0011012,-0.0012042,,,,0.2130947,4.8164411,-15.9049215,0.0000000,0.0000000,0.0000000,0.0229990,0.0002007,0.0000000,0.0000000,0.0000201,0.0000000,0.0000000,0.0000000,0.0002007,0.0000000,0.0000000,0.0000201,0.0000000,0.0000000,0.0000000,0.0002007,0.0000000,0.0000000,0.0000201,0.0000201,0.0000000,0.0000000,0.0000040,0.0000000,0.0000000,0.0000000,0.0000201,0.0000000,0.0000000,0.0000040,0.0000000,0.0000000,0.0000000,0.0000201,0.0000000,0.0000000,0.0000040
425.3028240,1.0506500,,-0.9991136,0.0420116,-0.0013430,0.0022782,-0.0014749,0.0014051,-0.0040201,,,,0.2130947,4.8164411,-15.9049215,0.0000000,0.0000000,0.0000000,0.0210130,0.0002016,0.0000000,0.0000000,0.0000201,0.0000000,0.0000000,0.0000000,0.0002016,0.0000000,0.0000000,0.0000201,0.0000000,0.0000000,0.0000000,0.0002016,0.0000000,0.0000000,0.0000201,0.0000201,0.0000000,0.0000000,0.0000040,0.0000000,0.0000000,0.0000000,0.0000201,0.0000000,0.0000000,0.0000040,0.0000000,0.0000000,0.0000000,0.0000201,0.0000000,0.0000000,0.0000040
425.3241360,1.0494500,,-0.9991136,0.0420116,-0.0013418,0.0022816,-0.0019734,0.0028006,-0.0076253,,,,0.2130947,4.8164411,-15.9049215,0.0000000,0.0000000,0.0000000,0.0209890,0.0002024,0.0000000,0.0000000,0.0000202,0.0000000,0.0000000,0.0000000,0.0002024,0.0000000,0.0000000,0.0000202,0.0000000,0.0000000,0.0000000,0.0002024,0.0000000,0.0000000,0.0000202,0.0000202,0.0000000,0.0000000,0.0000040,0.0000000,0.0000000,0.0000000,0.0000202,0.0000000,0.0000000,0.0000040,0.0000000,0.0000000,0.0000000,0.0000202,0.0000000,0.0000000,0.0000040
425.3441190,,0.9999700,-0.9991136,0.0420116,-0.0013442,0.0022851,,,,0.0000000,0.0000000,0.0000000,0.2130947,4.8164411,-15.9049215,0.0000000,0.0000000,0.0000000,0.0999970,0.0001984,0.0000000,0.0000000,0.0000198,0.0000000,0.0000000,0.0000000,0.0001984,0.0000000,0.0000000,0.0000198,0.0000000,0.0000000,0.0000000,0.0001984,0.0000000,0.0000000,0.0000198,0.0000198,0.0000000,0.0000000,0.0000040,0.0000000,0.0000000,0.0000000,0.0000198,0.0000000,0.0000000,0.0000040,0.0000000,0.0000000,0.0000000,0.0000198,0.0000000,0.0000000,0.0000040
425.3585900,1.0000000,,-0.9991136,0.0420116,-0.0013442,0.0022851,-0.0024744,0.0008205,-0.0091837,,,,0.2130947,4.8164411,-15.9049215,0.0000000,0.0000000,0.0000000,0.0200000,0.0001992,0.0000000,0.0000000,0.0000199,0.0000000,0.0000000,0.0000000,0.0001992,0.0000000,0.0000000,0.0000199,0.0000000,0.0000000,0.0000000,0.0001992,0.0000000,0.0000000,0.0000199,0.0000199,0.0000000,0.0000000,0.0000040,0.0000000,0.0000000,0.0000000,0.0000199,0.0000000,0.0000000,0.0000040,0.0000000,0.0000000,0.0000000,0.0000199,0.0000000,0.0000000,0.0000040
425.3716910,1.3999001,,-0.9991136,0.0420116,-0.0013429,0.0022859,0.0016696,0.0000669,-0.0028829,,,,0.2130947,4.8164411,-15.9049215,0.0000000,0.0000000,0.0000000,0.0279980,0.0002003,0.0000000,0.0000000,0.0000200,0.0000000,0.0000000,0.0000000,0.0002003,0.0000000,0.0000000,0.0000200,0.0000000,0.0000000,0.0000000,0.0002003,0.0000000,0.0000000,0.0000200,0.0000200,0.0000000,0.0000000,0.0000040,0.0000000,0.0000000,0.0000000,0.0000200,0.0000000,0.0000000,0.0000040,0.0000000,0.0000000,0.0000000,0.0000200,0.0000000,0.0000000,0.0000040
425.3918080,1.0003500,,-0.9991137,0.0420116,-0.0013321,0.0022775,-0.0001418,0.0074874,-0.0031504,,,,0.2130947,4.8164411,-15.9049215,0.0000000,0.0000000,0.0000000,0.0200070,0.0002011,0.0000000,0.0000000,0.0000201,0.0000000,0.0000000,0.0000000,0.0002011,0.0000000,0.0000000,0.0000201,0.0000000,0.0000000,0.0000000,0.0002011,0.0000000,0.0000000,0.0000201,0.0000201,0.0000000,0.0000000,0.0000040,0.0000000,0.0000000,0.0000000,0.0000201,0.0000000,0.0000000,0.0000040,0.0000000,0.0000000,0.0000000,0.0000201,0.0000000,0.0000000,0.0000040
425.4121680,1.0000000,,-0.9991137,0.0420117,-0.0013180,0.0022757,-0.0037177,-0.0039391,0.0008662,,,,0.2130947,4.8164411,-15.9049215,0.0000000,0.0000000,0.0000000,0.0200000,0.0002019,0.0000000,0.0000000,0.0000202,0.0000000,0.0000000,0.0000000,0.0002019,0.0000000,0.0000000,0.0000202,0.0000000,0.0000000,0.0000000,0.0002019,0.0000000,0.0000000,0.0000202,0.0000202,0.0000000,0.0000000,0.0000040,0.0000000,0.0000000,0.0000000,0.0000202,0.0000000,0.0000000,0.0000040,0.0000000,0.0000000,0.0000000,0.0000202,0.0000000,0.0000000,0.0000040
425.4320070,1.0000501,,-0.9991137,0.0420116,-0.0013332,0.0022534,-0.0023777,0.0037372,-0.0000552,,,,0.2130947,4.8164411,-15.9049215,0.0000000,0.0000000,0.0000000,0.0200010,0.0002027,0.0000000,0.0000000,0.0000203,0.0000000,0.0000000,0.0000000,0.0002027,0.0000000,0.0000000,0.0000203,0.0000000,0.0000000,0.0000000,0.0002027,0.0000000,0.0000000,0.0000203,0.0000203,0.0000000,0.0000000,0.0000040,0.0000000,0.0000000,0.0000000,0.0000203,0.0000000,0.0000000,0.0000040,0.0000000,0.0000000,0.0000000,0.0000203,0.0000000,0.0000000,0.0000040
425.4479340,,0.9999900,-0.9991137,0.0420116,-0.0013332,0.0022534,,,,0.0000000,0.0000000,0.0000000,0.2130947,4.8164411,-15.9049215,0.0000000,0.0000000,0.0000000,0.0999990,0.0001987,0.0000000,0.0000000,0.0000199,0.0000000,0.0000000,0.0000000,0.0001987,0.0000000,0.0000000,0.0000199,0.0000000,0.0000000,0.0000000,0.0001987,0.0000000,0.0000000,0.0000199,0.0000199,0.0000000,0.0000000,0.0000040,0.0000000,0.0000000,0.0000000,0.0000199,0.0000000,0.0000000,0.0000040,0.0000000,0.0000000,0.0000000,0.0000199,0.0000000,0.0000000,0.0000040
425.4615220,1.0000000,,-0.9991138,0.0420115,-0.0013450,0.0022089,-0.0024477,0.0016474,0.0007048,,,,0.2130947,4.8164411,-15.9049215,0.0000000,0.0000000,0.0000000,0.0200000,0.0001995,0.0000000,0.0000000,0.0000199,0.0000000,0.0000000,0.0000000,0.0001995,0.0000000,0.0000000,0.0000199,0.0000000,0.0000000,0.0000000,0.0001995,0.0000000,0.0000000,0.0000199,0.0000199,0.0000000,0.0000000,0.0000040,0.0000000,0.0000000,0.0000000,0.0000199,0.0000000,0.0000000,0.0000040,0.0000000,0.0000000,0.0000000,0.0000199,0.0000000,0.0000000,0.0000040
425.4746000,1.1496500,,-0.9991138,0.0420115,-0.0013558,0.0022070,0.0023925,0.0016248,-0.0008683,,,,0.2130947,4.8164411,-15.9049215,0.0000000,0.0000000,0.0000000,0.0229930,0.0002004,0.0000000,0.0000000,0.0000200,0.0000000,0.0000000,0.0000000,0.0002004,0.0000000,0.0000000,0.0000200,0.0000000,0.0000000,0.0000000,0.0002004,0.0000000,0.0000000,0.0000200,0.0000200,0.0000000,0.0000000,0.0000040,0.0000000,0.0000000,0.0000000,0.0000200,0.0000000,0.0000000,0.0000040,0.0000000,0.0000000,0.0000000,0.0000200,0.0000000,0.0000000,0.0000040
425.4958370,1.0501500,,-0.9991138,0.0420115,-0.0013502,0.0022033,-0.0049302,-0.0001031,-0.0045845,,,,0.2130947,4.8164411,-15.9049215,0.0000000,0.0000000,0.0000000,0.0210030,0.0002012,0.0000000,0.0000000,0.0000201,0.0000000,0.0000000,0.0000000,0.0002012,0.0000000,0.0000000,0.0000201,0.0000000,0.0000000,0.0000000,0.0002012,0.0000000,0.0000000,0.0000201,0.0000201,0.0000000,0.0000000,0.0000040,0.0000000,0.0000000,0.0000000,0.0000201,0.0000000,0.0000000,0.0000040,0.0000000,0.0000000,0.0000000,0.0000201,0.0000000,0.0000000,0.0000040
425.5182150,1.0498501,,-0.9991138,0.0420116,-0.0013439,0.0022158,-0.0078514,0.0049228,-0.0025364,,,,0.2130947,4.8164411,-15.9049215,0.0000000,0.0000000,0.0000000,0.0209970,0.0002021,0.0000000,0.0000000,0.0000202,0.0000000,0.0000000,0.0000000,0.0002021,0.0000000,0.0000000,0.0000202,0.0000000,0.0000000,0.0000000,0.0002021,0.0000000,0.0000000,0.0000202,0.0000202,0.0000000,0.0000000,0.0000040,0.0000000,0.0000000,0.0000000,0.0000202,0.0000000,0.0000000,0.0000040,0.0000000,0.0000000,0.0000000,0.0000202,0.0000000,0.0000000,0.0000040
425.5367590,1.0002999,,-0.9991137,0.0420116,-0.0013580,0.0022294,0.0011478,0.0050096,0.0053236,,,,0.2130947,4.8164411,-15.9049215,0.0000000,0.0000000,0.0000000,0.0200060,0.0002029,0.0000000,0.0000000,0.0000203,0.0000000,0.0000000,0.0000000,0.0002029,0.0000000,0.0000000,0.0000203,0.0000000,0.0000000,0.0000000,0.0002029,0.0000000,0.0000000,0.0000203,0.0000203,0.0000000,0.0000000,0.0000040,0.0000000,0.0000000,0.0000000,0.0000203,0.0000000,0.0000000,0.0000040,0.0000000,0.0000000,0.0000000,0.0000203,0.0000000,0.0000000,0.0000040
425.5527280,,1.0001199,-0.9991137,0.0420116,-0.0013580,0.0022294,,,,0.0000000,0.0000000,0.0000000,0.2130947,4.8164411,-15.9049215,0.0000000,0.0000000,0.0000000,0.1000120,0.0001988,0.0000000,0.0000000,0.0000199,0.0000000,0.0000000,0.0000000,0.0001988,0.0000000,0.0000000,0.0000199,0.0000000,0.0000000,0.0000000,0.0001988,0.0000000,0.0000000,0.0000199,0.0000199,0.0000000,0.0000000,0.0000040,0.0000000,0.0000000,0.0000000,0.0000199,0.0000000,0.0000000,0.0000040,0.0000000,0.0000000,0.0000000,0.0000199,0.0000000,0.0000000,0.0000040
425.5663030,1.0000000,,-0.9991137,0.0420115,-0.0013770,0.0022397,-0.0051176,0.0040841,0.0016852,,,,0.2130947,4.8164411,-15.9049215,0.0000000,0.0000000,0.0000000,0.0200000,0.0001996,0.0000000,0.0000000,0.0000199,0.0000000,0.0000000,0.0000000,0.0001996,0.0000000,0.0000000,0.0000199,0.0000000,0.0000000,0.0000000,0.0001996,0.0000000,0.0000000,0.0000199,0.0000199,0.0000000,0.0000000,0.0000040,0.0000000,0.0000000,0.0000000,0.0000199,0.0000000,0.0000000,0.0000040,0.0000000,0.0000000,0.0000000,0.0000199,0.0000000,0.0000000,0.0000040
425.5795680,1.1496500,,-0.9991137,0.0420115,-0.0013990,0.0022365,0.0017365,-0.0054271,-0.0023312,,,,0.2130947,4.8164411,-15.9049215,0.0000000,0.0000000,0.0000000,0.0229930,0.0002006,0.0000000,0.0000000,0.0000200,0.0000000,0.0000000,0.0000000,0.0002006,0.0000000,0.0000000,0.0000200,0.0000000,0.0000000,0.0000000,0.0002006,0.0000000,0.0000000,0.0000200,0.0000200,0.0000000,0.0000000,0.0000040,0.0000000,0.0000000,0.0000000,0.0000200,0.0000000,0.0000000,0.0000040,0.0000000,0.0000000,0.0000000,0.0000200,0.0000000,0.0000000,0.0000040
425.6007730,1.0502001,,-0.9991137,0.0420115,-0.0014040,0.0022183,0.0066361,-0.0011877,-0.0031187,,,,0.2130947,4.8164411,-15.9049215,0.0000000,0.0000000,0.0000000,0.0210040,0.0002014,0.0000000,0.0000000,0.0000201,0.0000000,0.0000000,0.0000000,0.0002014,0.0000000,0.0000000,0.0000201,0.0000000,0.0000000,0.0000000,0.0002014,0.0000000,0.0000000,0.0000201,0.0000201,0.0000000,0.0000000,0.0000040,0.0000000,0.0000000,0.0000000,0.0000201,0.0000000,0.0000000,0.0000040,0.0000000,0.0000000,0.0000000,0.0000201,0.0000000,0.0000000,0.0000040
425.6221240,1.0501500,,-0.9991136,0.0420115,-0.0014151,0.0022315,-0.0004509,0.0002454,-0.0047332,,,,0.2130947,4.8164411,-15.9049215,0.0000000,0.0000000,0.0000000,0.0210030,0.0002022,0.0000000,0.0000000,0.0000202,0.0000000,0.0000000,0.0000000,0.0002022,0.0000000,0.0000000,0.0000202,0.0000000,0.0000000,0.0000000,0.0002022,0.0000000,0.0000000,0.0000202,0.0000202,0.0000000,0.0000000,0.0000040,0.0000000,0.0000000,0.0000000,0.0000202,0.0000000,0.0000000,0.0000040,0.0000000,0.0000000,0.0000000,0.0000202,0.0000000,0.0000000,0.0000040
425.6440440,,0.9998900,-0.9991136,0.0420115,-0.0014001,0.0022392,,,,0.0000000,0.0000000,0.0000000,0.2130947,4.8164411,-15.9049215,0.0000000,0.0000000,0.0000000,0.0999890,0.0001982,0.0000000,0.0000000,0.0000198,0.0000000,0.0000000,0.0000000,0.0001982,0.0000000,0.0000000,0.0000198,0.0000000,0.0000000,0.0000000,0.0001982,0.0000000,0.0000000,0.0000198,0.0000198,0.0000000,0.0000000,0.0000040,0.0000000,0.0000000,0.0000000,0.0000198,0.0000000,0.0000000,0.0000040,0.0000000,0.0000000,0.0000000,0.0000198,0.0000000,0.0000000,0.0000040
425.6576160,1.0501001,,-0.9991136,0.0420115,-0.0014001,0.0022392,-0.0020031,-0.0051416,-0.0084701,,,,0.2130947,4.8164411,-15.9049215,0.0000000,0.0000000,0.0000000,0.0210020,0.0001991,0.0000000,0.0000000,0.0000199,0.0000000,0.0000000,0.0000000,0.0001991,0.0000000,0.0000000,0.0000199,0.0000000,0.0000000,0.0000000,0.0001991,0.0000000,0.0000000,0.0000199,0.0000199,0.0000000,0.0000000,0.0000040,0.0000000,0.0000000,0.0000000,0.0000199,0.0000000,0.0000000,0.0000040,0.0000000,0.0000000,0.0000000,0.0000199,0.0000000,0.0000000,0.0000040
425.6709820,1.4000001,,-0.9991136,0.0420115,-0.0014274,0.0022596,0.0003336,-0.0031583,-0.0003288,,,,0.2130947,4.8164411,-15.9049215,0.0000000,0.0000000,0.0000000,0.0280000,0.0002002,0.0000000,0.0000000,0.0000200,0.0000000,0.0000000,0.0000000,0.0002002,0.0000000,0.0000000,0.0000200,0.0000000,0.0000000,0.0000000,0.0002002,0.0000000,0.0000000,0.0000200,0.0000200,0.0000000,0.0000000,0.0000040,0.0000000,0.0000000,0.0000000,0.0000200,0.0000000,0.0000000,0.0000040,0.0000000,0.0000000,0.0000000,0.0000200,0.0000000,0.0000000,0.0000040
425.6906510,1.0001501,,-0.9991136,0.0420115,-0.0014318,0.0022513,-0.0019008,0.0029222,0.0015446,,,,0.2130947,4.8164411,-15.9049215,0.0000000,0.0000000,0.0000000,0.0200030,0.0002010,0.0000000,0.0000000,0.0000201,0.0000000,0.0000000,0.0000000,0.0002010,0.0000000,0.0000000,0.0000201,0.0000000,0.0000000,0.0000000,0.0002010,0.0000000,0.0000000,0.0000201,0.0000201,0.0000000,0.0000000,0.0000040,0.0000000,0.0000000,0.0000000,0.0000201,0.0000000,0.0000000,0.0000040,0.0000000,0.0000000,0.0000000,0.0000201,0.0000000,0.0000000,0.0000040
425.7117480,1.0495000,,-0.9991136,0.0420115,-0.0014464,0.0022461,0.0028185,0.0030328,-0.0009367,,,,0.2130947,4.8164411,-15.9049215,0.0000000,0.0000000,0.0000000,0.0209900,0.0002018,0.0000000,0.0000000,0.0000202,0.0000000,0.0000000,0.0000000,0.0002018,0.0000000,0.0000000,0.0000202,0.0000000,0.0000000,0.0000000,0.0002018,0.0000000,0.0000000,0.0000202,0.0000202,0.0000000,0.0000000,0.0000040,0.0000000,0.0000000,0.0000000,0.0000202,0.0000000,0.0000000,0.0000040,0.0000000,0.0000000,0.0000000,0.0000202,0.0000000,0.0000000,0.0000040
425.7326170,1.0499500,,-0.9991136,0.0420114,-0.0014589,0.0022380,0.0058954,0.0030804,-0.0041305,,,,0.2130947,4.8164411,-15.9049215,0.0000000,0.0000000,0.0000000,0.0209990,0.0002027,0.0000000,0.0000000,0.0000203,0.0000000,0.0000000,0.0000000,0.0002027,0.0000000,0.0000000,0.0000203,0.0000000,0.0000000,0.0000000,0.0002027,0.0000000,0.0000000,0.0000203,0.0000203,0.0000000,0.0000000,0.0000040,0.0000000,0.0000000,0.0000000,0.0000203,0.0000000,0.0000000,0.0000040,0.0000000,0.0000000,0.0000000,0.0000203,0.0000000,0.0000000,0.0000040
425.7486720,,1.0200700,-0.9991136,0.0420114,-0.0014589,0.0022380,,,,0.0000000,0.0000000,0.0000000,0.2130947,4.8164411,-15.9049215,0.0000000,0.0000000,0.0000000,0.1020070,0.0001986,0.0000000,0.0000000,0.0000199,0.0000000,0.0000000,0.0000000,0.0001986,0.0000000,0.0000000,0.0000199,0.0000000,0.0000000,0.0000000,0.0001986,0.0000000,0.0000000,0.0000199,0.0000199,0.0000000,0.0000000,0.0000040,0.0000000,0.0000000,0.0000000,0.0000199,0.0000000,0.0000000,0.0000040,0.0000000,0.0000000,0.0000000,0.0000199,0.0000000,0.0000000,0.0000040
425.7611360,1.1001501,,-0.9991136,0.0420114,-0.0014807,0.0022347,0.0074032,0.0013952,-0.0015769,,,,0.2130947,4.8164411,-15.9049215,0.0000000,0.0000000,0.0000000,0.0220030,0.0001995,0.0000000,0.0000000,0.0000199,0.0000000,0.0000000,0.0000000,0.0001995,0.0000000,0.0000000,0.0000199,0.0000000,0.0000000,0.0000000,0.0001995,0.0000000,0.0000000,0.0000199,0.0000199,0.0000000,0.0000000,0.0000040,0.0000000,0.0000000,0.0000000,0.0000199,0.0000000,0.0000000,0.0000040,0.0000000,0.0000000,0.0000000,0.0000199,0.0000000,0.0000000,0.0000040
425.7759690,1.0502501,,-0.9991136,0.0420114,-0.0014781,0.0022457,0.0069670,0.0003314,0.0028736,,,,0.2130947,4.8164411,-15.9049215,0.0000000,0.0000000,0.0000000,0.0210050,0.0002004,0.0000000,0.0000000,0.0000200,0.0000000,0.0000000,0.0000000,0.0002004,0.0000000,0.0000000,0.0000200,0.0000000,0.0000000,0.0000000,0.0002004,0.0000000,0.0000000,0.0000200,0.0000200,0.0000000,0.0000000,0.0000040,0.0000000,0.0000000,0.0000000,0.0000200,0.0000000,0.0000000,0.0000040,0.0000000,0.0000000,0.0000000,0.0000200,0.0000000,0.0000000,0.0000040
425.7956780,1.0002000,,-0.9991134,0.0420114,-0.0014854,0.0022663,0.0067336,-0.0035880,-0.0039343,,,,0.2130947,4.8164411,-15.9049215,0.0000000,0.0000000,0.0000000,0.0200040,0.0002012,0.0000000,0.0000000,0.0000201,0.0000000,0.0000000,0.0000000,0.0002012,0.0000000,0.0000000,0.0000201,0.0000000,0.0000000,0.0000000,0.0002012,0.0000000,0.0000000,0.0000201,0.0000201,0.0000000,0.0000000,0.0000040,0.0000000,0.0000000,0.0000000,0.0000201,0.0000000,0.0000000,0.0000040,0.0000000,0.0000000,0.0000000,0.0000201,0.0000000,0.0000000,0.0000040
425.8167910,1.0494001,,-0.9991134,0.0420115,-0.0014780,0.0022637,0.0032142,-0.0053264,-0.0044085,,,,0.2130947,4.8164411,-15.9049215,0.0000000,0.0000000,0.0000000,0.0209880,0.0002020,0.0000000,0.0000000,0.0000202,0.0000000,0.0000000,0.0000000,0.0002020,0.0000000,0.0000000,0.0000202,0.0000000,0.0000000,0.0000000,0.0002020,0.0000000,0.0000000,0.0000202,0.0000202,0.0000000,0.0000000,0.0000040,0.0000000,0.0000000,0.0000000,0.0000202,0.0000000,0.0000000,0.0000040,0.0000000,0.0000000,0.0000000,0.0000202,0.0000000,0.0000000,0.0000040
425.8376860,1.0500000,,-0.9991136,0.0420115,-0.0014690,0.0022398,0.0004932,-0.0045324,-0.0046457,,,,0.2130947,4.8164411,-15.9049215,0.0000000,0.0000000,0.0000000,0.0210000,0.0002029,0.0000000,0.0000000,0.0000203,0.0000000,0.0000000,0.0000000,0.0002029,0.0000000,0.0000000,0.0000203,0.0000000,0.0000000,0.0000000,0.0002029,0.0000000,0.0000000,0.0000203,0.0000203,0.0000000,0.0000000,0.0000040,0.0000000,0.0000000,0.0000000,0.0000203,0.0000000,0.0000000,0.0000040,0.0000000,0.0000000,0.0000000,0.0000203,0.0000000,0.0000000,0.0000040
425.8536870,,0.9999600,-0.9991136,0.0420115,-0.0014690,0.0022398,,,,0.0000000,0.0000000,0.0000000,0.2130947,4.8164411,-15.9049215,0.0000000,0.0000000,0.0000000,0.0999960,0.0001988,0.0000000,0.0000000,0.0000199,0.0000000,0.0000000,0.0000000,0.0001988,0.0000000,0.0000000,0.0000199,0.0000000,0.0000000,0.0000000,0.0001988,0.0000000,0.0000000,0.0000199,0.0000199,0.0000000,0.0000000,0.0000040,0.0000000,0.0000000,0.0000000,0.0000199,0.0000000,0.0000000,0.0000040,0.0000000,0.0000000,0.0000000,0.0000199,0.0000000,0.0000000,0.0000040
425.8672050,1.1001501,,-0.9991136,0.0420115,-0.0014686,0.0022409,-0.0023398,-0.0087512,-0.0052525,,,,0.2130947,4.8164411,-15.9049215,0.0000000,0.0000000,0.0000000,0.0220030,0.0001997,0.0000000,0.0000000,0.0000200,0.0000000,0.0000000,0.0000000,0.0001997,0.0000000,0.0000000,0.0000200,0.0000000,0.0000000,0.0000000,0.0001997,0.0000000,0.0000000,0.0000200,0.0000200,0.0000000,0.0000000,0.0000040,0.0000000,0.0000000,0.0000000,0.0000200,0.0000000,0.0000000,0.0000040,0.0000000,0.0000000,0.0000000,0.0000200,0.0000000,0.0000000,0.0000040
425.8809630,1.0501500,,-0.9991135,0.0420114,-0.0014961,0.0022389,0.0008214,-0.0062219,-0.0065325,,,,0.2130947,4.8164411,-15.9049215,0.0000000,0.0000000,0.0000000,0.0210030,0.0002005,0.0000000,0.0000000,0.0000200,0.0000000,0.0000000,0.0000000,0.0002005,0.0000000,0.0000000,0.0000200,0.0000000,0.0000000,0.0000000,0.0002005,0.0000000,0.0000000,0.0000200,0.0000200,0.0000000,0.0000000,0.0000040,0.0000000,0.0000000,0.0000000,0.0000200,0.0000000,0.0000000,0.0000040,0.0000000,0.0000000,0.0000000,0.0000200,0.0000000,0.0000000,0.0000040
425.9006400,1.0002000,,-0.9991134,0.0420114,-0.0015190,0.0022480,0.0080019,0.0009250,-0.0005807,,,,0.2130947,4.8164411,-15.9049215,0.0000000,0.0000000,0.0000000,0.0200040,0.0002013,0.0000000,0.0000000,0.0000201,0.0000000,0.0000000,0.0000000,0.0002013,0.0000000,0.0000000,0.0000201,0.0000000,0.0000000,0.0000000,0.0002013,0.0000000,0.0000000,0.0000201,0.0000201,0.0000000,0.0000000,0.0000040,0.0000000,0.0000000,0.0000000,0.0000201,0.0000000,0.0000000,0.0000040,0.0000000,0.0000000,0.0000000,0.0000201,0.0000000,0.0000000,0.0000040
425.9217380,1.0495000,,-0.9991134,0.0420114,-0.0015373,0.0022625,-0.0006301,-0.0045195,-0.0027318,,,,0.2130947,4.8164411,-15.9049215,0.0000000,0.0000000,0.0000000,0.0209900,0.0002022,0.0000000,0.0000000,0.0000202,0.0000000,0.0000000,0.0000000,0.0002022,0.0000000,0.0000000,0.0000202,0.0000000,0.0000000,0.0000000,0.0002022,0.0000000,0.0000000,0.0000202,0.0000202,0.0000000,0.0000000,0.0000040,0.0000000,0.0000000,0.0000000,0.0000202,0.0000000,0.0000000,0.0000040,0.0000000,0.0000000,0.0000000,0.0000202,0.0000000,0.0000000,0.0000040
425.9425950,1.0500500,,-0.9991133,0.0420113,-0.0015545,0.0022606,0.0004098,-0.0001769,0.0015638,,,,0.2130947,4.8164411,-15.9049215,0.0000000,0.0000000,0.0000000,0.0210010,0.0002030,0.0000000,0.0000000,0.0000203,0.0000000,0.0000000,0.0000000,0.0002030,0.0000000,0.0000000,0.0000203,0.0000000,0.0000000,0.0000000,0.0002030,0.0000000,0.0000000,0.0000203,0.0000203,0.0000000,0.0000000,0.0000040,0.0000000,0.0000000,0.0000000,0.0000203,0.0000000,0.0000000,0.0000040,0.0000000,0.0000000,0.0000000,0.0000203,0.0000000,0.0000000,0.0000040
425.9586710,,0.9999900,-0.9991133,0.0420113,-0.0015545,0.0022606,,,,0.0000000,0.0000000,0.0000000,0.2130947,4.8164411,-15.9049215,0.0000000,0.0000000,0.0000000,0.0999990,0.0001990,0.0000000,0.0000000,0.0000199,0.0000000,0.0000000,0.0000000,0.0001990,0.0000000,0.0000000,0.0000199,0.0000000,0.0000000,0.0000000,0.0001990,0.0000000,0.0000000,0.0000199,0.0000199,0.0000000,0.0000000,0.0000040,0.0000000,0.0000000,0.0000000,0.0000199,0.0000000,0.0000000,0.0000040,0.0000000,0.0000000,0.0000000,0.0000199,0.0000000,0.0000000,0.0000040
425.9711650,1.1001000,,-0.9991134,0.0420112,-0.0015823,0.0022255,0.0072392,0.0021698,0.0029792,,,,0.2130947,4.8164411,-15.9049215,0.0000000,0.0000000,0.0000000,0.0220020,0.0001999,0.0000000,0.0000000,0.0000200,0.0000000,0.0000000,0.0000000,0.0001999,0.0000000,0.0000000,0.0000200,0.0000000,0.0000000,0.0000000,0.0001999,0.0000000,0.0000000,0.0000200,0.0000200,0.0000000,0.0000000,0.0000040,0.0000000,0.0000000,0.0000000,0.0000200,0.0000000,0.0000000,0.0000040,0.0000000,0.0000000,0.0000000,0.0000200,0.0000000,0.0000000,0.0000040
425.9859330,1.0502001,,-0.9991133,0.0420112,-0.0015978,0.0022278,0.0013765,-0.0012573,0.0029544,,,,0.2130947,4.8164411,-15.9049215,0.0000000,0.0000000,0.0000000,0.0210040,0.0002007,0.0000000,0.0000000,0.0000201,0.0000000,0.0000000,0.0000000,0.0002007,0.0000000,0.0000000,0.0000201,0.0000000,0.0000000,0.0000000,0.0002007,0.0000000,0.0000000,0.0000201,0.0000201,0.0000000,0.0000000,0.0000040,0.0000000,0.0000000,0.0000000,0.0000201,0.0000000,0.0000000,0.0000040,0.0000000,0.0000000,0.0000000,0.0000201,0.0000000,0.0000000,0.0000040
426.0056320,1.0001501,,-0.9991133,0.0420112,-0.0016047,0.0022411,-0.0020430,-0.0002548,0.0043993,,,,0.2130947,4.8164411,-15.9049215,0.0000000,0.0000000,0.0000000,0.0200030,0.0002015,0.0000000,0.0000000,0.0000201,0.0000000,0.0000000,0.0000000,0.0002015,0.0000000,0.0000000,0.0000201,0.0000000,0.0000000,0.0000000,0.0002015,0.0000000,0.0000000,0.0000201,0.0000201,0.0000000,0.0000000,0.0000040,0.0000000,0.0000000,0.0000000,0.0000201,0.0000000,0.0000000,0.0000040,0.0000000,0.0000000,0.0000000,0.0000201,0.0000000,0.0000000,0.0000040
426.0267770,1.0495000,,-0.9991133,0.0420113,-0.0015772,0.0022439,-0.0002738,0.0007195,-0.0026832,,,,0.2130947,4.8164411,-15.9049215,0.0000000,0.0000000,0.0000000,0.0209900,0.0002023,0.0000000,0.0000000,0.0000202,0.0000000,0.0000000,0.0000000,0.0002023,0.0000000,0.0000000,0.0000202,0.0000000,0.0000000,0.0000000,0.0002023,0.0000000,0.0000000,0.0000202,0.0000202,0.0000000,0.0000000,0.0000040,0.0000000,0.0000000,0.0000000,0.0000202,0.0000000,0.0000000,0.0000040,0.0000000,0.0000000,0.0000000,0.0000202,0.0000000,0.0000000,0.0000040
426.0469940,,1.0099900,-0.9991133,0.0420113,-0.0015715,0.0022484,,,,0.0000000,0.0000000,0.0000000,0.2130947,4.8164411,-15.9049215,0.0000000,0.0000000,0.0000000,0.1009990,0.0001983,0.0000000,0.0000000,0.0000198,0.0000000,0.0000000,0.0000000,0.0001983,0.0000000,0.0000000,0.0000198,0.0000000,0.0000000,0.0000000,0.0001983,0.0000000,0.0000000,0.0000198,0.0000198,0.0000000,0.0000000,0.0000040,0.0000000,0.0000000,0.0000000,0.0000198,0.0000000,0.0000000,0.0000040,0.0000000,0.0000000,0.0000000,0.0000198,0.0000000,0.0000000,0.0000040
426.0608500,1.0002501,,-0.9991133,0.0420113,-0.0015715,0.0022484,0.0042576,-0.0034245,-0.0074451,,,,0.2130947,4.8164411,-15.9049215,0.0000000,0.0000000,0.0000000,0.0200050,0.0001991,0.0000000,0.0000000,0.0000199,0.0000000,0.0000000,0.0000000,0.0001991,0.0000000,0.0000000,0.0000199,0.0000000,0.0000000,0.0000000,0.0001991,0.0000000,0.0000000,0.0000199,0.0000199,0.0000000,0.0000000,0.0000040,0.0000000,0.0000000,0.0000000,0.0000199,0.0000000,0.0000000,0.0000040,0.0000000,0.0000000,0.0000000,0.0000199,0.0000000,0.0000000,0.0000040
426.0737660,1.3497000,,-0.9991134,0.0420114,-0.0015504,0.0022412,-0.0029600,0.0003401,-0.0025018,,,,0.2130947,4.8164411,-15.9049215,0.0000000,0.0000000,0.0000000,0.0269940,0.0002002,0.0000000,0.0000000,0.0000200,0.0000000,0.0000000,0.0000000,0.0002002,0.0000000,0.0000000,0.0000200,0.0000000,0.0000000,0.0000000,0.0002002,0.0000000,0.0000000,0.0000200,0.0000200,0.0000000,0.0000000,0.0000040,0.0000000,0.0000000,0.0000000,0.0000200,0.0000000,0.0000000,0.0000040,0.0000000,0.0000000,0.0000000,0.0000200,0.0000000,0.0000000,0.0000040
426.0946630,1.0501001,,-0.9991135,0.0420114,-0.0015186,0.0022183,-0.0087279,-0.0019662,-0.0066220,,,,0.2130947,4.8164411,-15.9049215,0.0000000,0.0000000,0.0000000,0.0210020,0.0002010,0.0000000,0.0000000,0.0000201,0.0000000,0.0000000,0.0000000,0.0002010,0.0000000,0.0000000,0.0000201,0.0000000,0.0000000,0.0000000,0.0002010,0.0000000,0.0000000,0.0000201,0.0000201,0.0000000,0.0000000,0.0000040,0.0000000,0.0000000,0.0000000,0.0000201,0.0000000,0.0000000,0.0000040,0.0000000,0.0000000,0.0000000,0.0000201,0.0000000,0.0000000,0.0000040
426.1159540,1.0503000,,-0.9991136,0.0420115,-0.0015070,0.0021991,-0.0016098,0.0002834,-0.0057524,,,,0.2130947,4.8164411,-15.9049215,0.0000000,0.0000000,0.0000000,0.0210060,0.0002019,0.0000000,0.0000000,0.0000202,0.0000000,0.0000000,0.0000000,0.0002019,0.0000000,0.0000000,0.0000202,0.0000000,0.0000000,0.0000000,0.0002019,0.0000000,0.0000000,0.0000202,0.0000202,0.0000000,0.0000000,0.0000040,0.0000000,0.0000000,0.0000000,0.0000202,0.0000000,0.0000000,0.0000040,0.0000000,0.0000000,0.0000000,0.0000202,0.0000000,0.0000000,0.0000040
426.1359740,0.9999000,,-0.9991136,0.0420115,-0.0014988,0.0021960,-0.0075721,-0.0046801,-0.0040969,,,,0.2130947,4.8164411,-15.9049215,0.0000000,0.0000000,0.0000000,0.0199980,0.0002027,0.0000000,0.0000000,0.0000203,0.0000000,0.0000000,0.0000000,0.0002027,0.0000000,0.0000000,0.0000203,0.0000000,0.0000000,0.0000000,0.0002027,0.0000000,0.0000000,0.0000203,0.0000203,0.0000000,0.0000000,0.0000040,0.0000000,0.0000000,0.0000000,0.0000203,0.0000000,0.0000000,0.0000040,0.0000000,0.0000000,0.0000000,0.0000203,0.0000000,0.0000000,0.0000040
426.1517100,,1.0000100,-0.9991136,0.0420115,-0.0014988,0.0021960,,,,0.0000000,0.0000000,0.0000000,0.2130947,4.8164411,-15.9049215,0.0000000,0.0000000,0.0000000,0.1000010,0.0001987,0.0000000,0.0000000,0.0000199,0.0000000,0.0000000,0.0000000,0.0001987,0.0000000,0.0000000,0.0000199,0.0000000,0.0000000,0.0000000,0.0001987,0.0000000,0.0000000,0.0000199,0.0000199,0.0000000,0.0000000,0.0000040,0.0000000,0.0000000,0.0000000,0.0000199,0.0000000,0.0000000,0.0000040,0.0000000,0.0000000,0.0000000,0.0000199,0.0000000,0.0000000,0.0000040
426.1648440,1.0002501,,-0.9991136,0.0420114,-0.0015178,0.0021863,0.0003872,0.0028327,-0.0030250,,,,0.2130947,4.8164411,-15.9049215,0.0000000,0.0000000,0.0000000,0.0200050,0.0001995,0.0000000,0.0000000,0.0000199,0.0000000,0.0000000,0.0000000,0.0001995,0.0000000,0.0000000,0.0000199,0.0000000,0.0000000,0.0000000,0.0001995,0.0000000,0.0000000,0.0000199,0.0000199,0.0000000,0.0000000,0.0000040,0.0000000,0.0000000,0.0000000,0.0000199,0.0000000,0.0000000,0.0000040,0.0000000,0.0000000,0.0000000,0.0000199,0.0000000,0.0000000,0.0000040
426.1775150,1.0994500,,-0.9991136,0.0420114,-0.0015238,0.0021887,-0.0009966,0.0053836,0.0019055,,,,0.2130947,4.8164411,-15.9049215,0.0000000,0.0000000,0.0000000,0.0219890,0.0002003,0.0000000,0.0000000,0.0000200,0.0000000,0.0000000,0.0000000,0.0002003,0.0000000,0.0000000,0.0000200,0.0000000,0.0000000,0.0000000,0.0002003,0.0000000,0.0000000,0.0000200,0.0000200,0.0000000,0.0000000,0.0000040,0.0000000,0.0000000,0.0000000,0.0000200,0.0000000,0.0000000,0.0000040,0.0000000,0.0000000,0.0000000,0.0000200,0.0000000,0.0000000,0.0000040
426.1989590,1.0505000,,-0.9991136,0.0420114,-0.0015352,0.0021762,-0.0007272,0.0019899,0.0002203,,,,0.2130947,4.8164411,-15.9049215,0.0000000,0.0000000,0.0000000,0.0210100,0.0002012,0.0000000,0.0000000,0.0000201,0.0000000,0.0000000,0.0000000,0.0002012,0.0000000,0.0000000,0.0000201,0.0000000,0.0000000,0.0000000,0.0002012,0.0000000,0.0000000,0.0000201,0.0000201,0.0000000,0.0000000,0.0000040,0.0000000,0.0000000,0.0000000,0.0000201,0.0000000,0.0000000,0.0000040,0.0000000,0.0000000,0.0000000,0.0000201,0.0000000,0.0000000,0.0000040
426.2189720,0.9996000,,-0.9991136,0.0420113,-0.0015704,0.0021475,0.0071590,0.0041612,0.0079227,,,,0.2130947,4.8164411,-15.9049215,0.0000000,0.0000000,0.0000000,0.0199920,0.0002020,0.0000000,0.0000000,0.0000202,0.0000000,0.0000000,0.0000000,0.0002020,0.0000000,0.0000000,0.0000202,0.0000000,0.0000000,0.0000000,0.0002020,0.0000000,0.0000000,0.0000202,0.0000202,0.0000000,0.0000000,0.0000040,0.0000000,0.0000000,0.0000000,0.0000202,0.0000000,0.0000000,0.0000040,0.0000000,0.0000000,0.0000000,0.0000202,0.0000000,0.0000000,0.0000040
426.2402810,0.9999500,,-0.9991136,0.0420113,-0.0015811,0.0021432,0.0003752,0.0003792,0.0049379,,,,0.2130947,4.8164411,-15.9049215,0.0000000,0.0000000,0.0000000,0.0199990,0.0002028,0.0000000,0.0000000,0.0000203,0.0000000,0.0000000,0.0000000,0.0002028,0.0000000,0.0000000,0.0000203,0.0000000,0.0000000,0.0000000,0.0002028,0.0000000,0.0000000,0.0000203,0.0000203,0.0000000,0.0000000,0.0000040,0.0000000,0.0000000,0.0000000,0.0000203,0.0000000,0.0000000,0.0000040,0.0000000,0.0000000,0.0000000,0.0000203,0.0000000,0.0000000,0.0000040
426.2560660,,1.0200399,-0.9991136,0.0420113,-0.0015811,0.0021432,,,,0.0000000,0.0000000,0.0000000,0.2130947,4.8164411,-15.9049215,0.0000000,0.0000000,0.0000000,0.1020040,0.0001988,0.0000000,0.0000000,0.0000199,0.0000000,0.0000000,0.0000000,0.0001988,0.0000000,0.0000000,0.0000199,0.0000000,0.0000000,0.0000000,0.0001988,0.0000000,0.0000000,0.0000199,0.0000199,0.0000000,0.0000000,0.0000040,0.0000000,0.0000000,0.0000000,0.0000199,0.0000000,0.0000000,0.0000040,0.0000000,0.0000000,0.0000000,0.0000199,0.0000000,0.0000000,0.0000040
426.2698800,1.0001501,,-0.9991136,0.0420114,-0.0015715,0.0021733,-0.0032304,-0.0033962,0.0039338,,,,0.2130947,4.8164411,-15.9049215,0.0000000,0.0000000,0.0000000,0.0200030,0.0001996,0.0000000,0.0000000,0.0000199,0.0000000,0.0000000,0.0000000,0.0001996,0.0000000,0.0000000,0.0000199,0.0000000,0.0000000,0.0000000,0.0001996,0.0000000,0.0000000,0.0000199,0.0000199,0.0000000,0.0000000,0.0000040,0.0000000,0.0000000,0.0000000,0.0000199,0.0000000,0.0000000,0.0000040,0.0000000,0.0000000,0.0000000,0.0000199,0.0000000,0.0000000,0.0000040
426.2825640,1.1998000,,-0.9991136,0.0420114,-0.0015572,0.0021743,-0.0023324,-0.0038496,-0.0009628,,,,0.2130947,4.8164411,-15.9049215,0.0000000,0.0000000,0.0000000,0.0239960,0.0002005,0.0000000,0.0000000,0.0000200,0.0000000,0.0000000,0.0000000,0.0002005,0.0000000,0.0000000,0.0000200,0.0000000,0.0000000,0.0000000,0.0002005,0.0000000,0.0000000,0.0000200,0.0000200,0.0000000,0.0000000,0.0000040,0.0000000,0.0000000,0.0000000,0.0000200,0.0000000,0.0000000,0.0000040,0.0000000,0.0000000,0.0000000,0.0000200,0.0000000,0.0000000,0.0000040
426.3040480,1.0501500,,-0.9991136,0.0420114,-0.0015533,0.0021832,-0.0028599,-0.0050376,-0.0004814,,,,0.2130947,4.8164411,-15.9049215,0.0000000,0.0000000,0.0000000,0.0210030,0.0002014,0.0000000,0.0000000,0.0000201,0.0000000,0.0000000,0.0000000,0.0002014,0.0000000,0.0000000,0.0000201,0.0000000,0.0000000,0.0000000,0.0002014,0.0000000,0.0000000,0.0000201,0.0000201,0.0000000,0.0000000,0.0000040,0.0000000,0.0000000,0.0000000,0.0000201,0.0000000,0.0000000,0.0000040,0.0000000,0.0000000,0.0000000,0.0000201,0.0000000,0.0000000,0.0000040
426.3238660,0.9999500,,-0.9991136,0.0420114,-0.0015594,0.0021830,-0.0033831,-0.0053951,-0.0070766,,,,0.2130947,4.8164411,-15.9049215,0.0000000,0.0000000,0.0000000,0.0199990,0.0002022,0.0000000,0.0000000,0.0000202,0.0000000,0.0000000,0.0000000,0.0002022,0.0000000,0.0000000,0.0000202,0.0000000,0.0000000,0.0000000,0.0002022,0.0000000,0.0000000,0.0000202,0.0000202,0.0000000,0.0000000,0.0000040,0.0000000,0.0000000,0.0000000,0.0000202,0.0000000,0.0000000,0.0000040,0.0000000,0.0000000,0.0000000,0.0000202,0.0000000,0.0000000,0.0000040
426.3440060,1.0004500,,-0.9991135,0.0420115,-0.0015520,0.0022089,-0.0063073,-0.0035673,-0.0074446,,,,0.2130947,4.8164411,-15.9049215,0.0000000,0.0000000,0.0000000,0.0200090,0.0002030,0.0000000,0.0000000,0.0000203,0.0000000,0.0000000,0.0000000,0.0002030,0.0000000,0.0000000,0.0000203,0.0000000,0.0000000,0.0000000,0.0002030,0.0000000,0.0000000,0.0000203,0.0000203,0.0000000,0.0000000,0.0000040,0.0000000,0.0000000,0.0000000,0.0000203,0.0000000,0.0000000,0.0000040,0.0000000,0.0000000,0.0000000,0.0000203,0.0000000,0.0000000,0.0000040
426.3596870,,1.0200900,-0.9991135,0.0420115,-0.0015520,0.0022089,,,,0.0000000,0.0000000,0.0000000,0.2130947,4.8164411,-15.9049215,0.0000000,0.0000000,0.0000000,0.1020090,0.0001989,0.0000000,0.0000000,0.0000199,0.0000000,0.0000000,0.0000000,0.0001989,0.0000000,0.0000000,0.0000199,0.0000000,0.0000000,0.0000000,0.0001989,0.0000000,0.0000000,0.0000199,0.0000199,0.0000000,0.0000000,0.0000040,0.0000000,0.0000000,0.0000000,0.0000199,0.0000000,0.0000000,0.0000040,0.0000000,0.0000000,0.0000000,0.0000199,0.0000000,0.0000000,0.0000040
426.3733760,0.9996500,,-0.9991135,0.0420115,-0.0015479,0.0022105,-0.0058163,-0.0070708,-0.0054313,,,,0.2130947,4.8164411,-15.9049215,0.0000000,0.0000000,0.0000000,0.0199930,0.0001997,0.0000000,0.0000000,0.0000200,0.0000000,0.0000000,0.0000000,0.0001997,0.0000000,0.0000000,0.0000200,0.0000000,0.0000000,0.0000000,0.0001997,0.0000000,0.0000000,0.0000200,0.0000200,0.0000000,0.0000000,0.0000040,0.0000000,0.0000000,0.0000000,0.0000200,0.0000000,0.0000000,0.0000040,0.0000000,0.0000000,0.0000000,0.0000200,0.0000000,0.0000000,0.0000040
426.3868140,1.1498500,,-0.9991134,0.0420115,-0.0015630,0.0022151,-0.0031676,-0.0066177,0.0031437,,,,0.2130947,4.8164411,-15.9049215,0.0000000,0.0000000,0.0000000,0.0229970,0.0002006,0.0000000,0.0000000,0.0000201,0.0000000,0.0000000,0.0000000,0.0002006,0.0000000,0.0000000,0.0000201,0.0000000,0.0000000,0.0000000,0.0002006,0.0000000,0.0000000,0.0000201,0.0000201,0.0000000,0.0000000,0.0000040,0.0000000,0.0000000,0.0000000,0.0000201,0.0000000,0.0000000,0.0000040,0.0000000,0.0000000,0.0000000,0.0000201,0.0000000,0.0000000,0.0000040
426.4077720,1.0500000,,-0.9991134,0.0420115,-0.0015656,0.0022401,-0.0054900,-0.0036598,-0.0020902,,,,0.2130947,4.8164411,-15.9049215,0.0000000,0.0000000,0.0000000,0.0210000,0.0002015,0.0000000,0.0000000,0.0000201,0.0000000,0.0000000,0.0000000,0.0002015,0.0000000,0.0000000,0.0000201,0.0000000,0.0000000,0.0000000,0.0002015,0.0000000,0.0000000,0.0000201,0.0000201,0.0000000,0.0000000,0.0000040,0.0000000,0.0000000,0.0000000,0.0000201,0.0000000,0.0000000,0.0000040,0.0000000,0.0000000,0.0000000,0.0000201,0.0000000,0.0000000,0.0000040
426.4279250,1.0000000,,-0.9991133,0.0420116,-0.0015698,0.0022576,-0.0071472,-0.0016849,0.0004121,,,,0.2130947,4.8164411,-15.9049215,0.0000000,0.0000000,0.0000000,0.0200000,0.0002023,0.0000000,0.0000000,0.0000202,0.0000000,0.0000000,0.0000000,0.0002023,0.0000000,0.0000000,0.0000202,0.0000000,0.0000000,0.0000000,0.0002023,0.0000000,0.0000000,0.0000202,0.0000202,0.0000000,0.0000000,0.0000040,0.0000000,0.0000000,0.0000000,0.0000202,0.0000000,0.0000000,0.0000040,0.0000000,0.0000000,0.0000000,0.0000202,0.0000000,0.0000000,0.0000040
426.4477430,1.0004500,,-0.9991133,0.0420116,-0.0015757,0.0022615,-0.0048095,-0.0048555,0.0001984,,,,0.2130947,4.8164411,-15.9049215,0.0000000,0.0000000,0.0000000,0.0200090,0.0002031,0.0000000,0.0000000,0.0000203,0.0000000,0.0000000,0.0000000,0.0002031,0.0000000,0.0000000,0.0000203,0.0000000,0.0000000,0.0000000,0.0002031,0.0000000,0.0000000,0.0000203,0.0000203,0.0000000,0.0000000,0.0000040,0.0000000,0.0000000,0.0000000,0.0000203,0.0000000,0.0000000,0.0000040,0.0000000,0.0000000,0.0000000,0.0000203,0.0000000,0.0000000,0.0000040
426.4631460,,0.9998700,-0.9991133,0.0420116,-0.0015757,0.0022615,,,,0.0000000,0.0000000,0.0000000,0.2130947,4.8164411,-15.9049215,0.0000000,0.0000000,0.0000000,0.0999870,0.0001991,0.0000000,0.0000000,0.0000199,0.0000000,0.0000000,0.0000000,0.0001991,0.0000000,0.0000000,0.0000199,0.0000000,0.0000000,0.0000000,0.0001991,0.0000000,0.0000000,0.0000199,0.0000199,0.0000000,0.0000000,0.0000040,0.0000000,0.0000000,0.0000000,0.0000199,0.0000000,0.0000000,0.0000040,0.0000000,0.0000000,0.0000000,0.0000199,0.0000000,0.0000000,0.0000040
426.4776220,1.0998499,,-0.9991133,0.0420116,-0.0015789,0.0022642,-0.0031525,-0.0030229,-0.0043030,,,,0.2130947,4.8164411,-15.9049215,0.0000000,0.0000000,0.0000000,0.0219970,0.0001999,0.0000000,0.0000000,0.0000200,0.0000000,0.0000000,0.0000000,0.0001999,0.0000000,0.0000000,0.0000200,0.0000000,0.0000000,0.0000000,0.0001999,0.0000000,0.0000000,0.0000200,0.0000200,0.0000000,0.0000000,0.0000040,0.0000000,0.0000000,0.0000000,0.0000200,0.0000000,0.0000000,0.0000040,0.0000000,0.0000000,0.0000000,0.0000200,0.0000000,0.0000000,0.0000040
426.4908340,1.0500000,,-0.9991133,0.0420116,-0.0015966,0.0022812,0.0020401,-0.0054940,-0.0053329,,,,0.2130947,4.8164411,-15.9049215,0.0000000,0.0000000,0.0000000,0.0210000,0.0002008,0.0000000,0.0000000,0.0000201,0.0000000,0.0000000,0.0000000,0.0002008,0.0000000,0.0000000,0.0000201,0.0000000,0.0000000,0.0000000,0.0002008,0.0000000,0.0000000,0.0000201,0.0000201,0.0000000,0.0000000,0.0000040,0.0000000,0.0000000,0.0000000,0.0000201,0.0000000,0.0000000,0.0000040,0.0000000,0.0000000,0.0000000,0.0000201,0.0000000,0.0000000,0.0000040
426.5117790,1.0496501,,-0.9991133,0.0420116,-0.0015927,0.0022689,-0.0012001,0.0047069,-0.0046196,,,,0.2130947,4.8164411,-15.9049215,0.0000000,0.0000000,0.0000000,0.0209930,0.0002016,0.0000000,0.0000000,0.0000201,0.0000000,0.0000000,0.0000000,0.0002016,0.0000000,0.0000000,0.0000201,0.0000000,0.0000000,0.0000000,0.0002016,0.0000000,0.0000000,0.0000201,0.0000201,0.0000000,0.0000000,0.0000040,0.0000000,0.0000000,0.0000000,0.0000201,0.0000000,0.0000000,0.0000040,0.0000000,0.0000000,0.0000000,0.0000201,0.0000000,0.0000000,0.0000040
426.5321710,1.0004500,,-0.9991133,0.0420116,-0.0015892,0.0022523,0.0027950,0.0061224,-0.0054836,,,,0.2130947,4.8164411,-15.9049215,0.0000000,0.0000000,0.0000000,0.0200090,0.0002024,0.0000000,0.0000000,0.0000202,0.0000000,0.0000000,0.0000000,0.0002024,0.0000000,0.0000000,0.0000202,0.0000000,0.0000000,0.0000000,0.0002024,0.0000000,0.0000000,0.0000202,0.0000202,0.0000000,0.0000000,0.0000040,0.0000000,0.0000000,0.0000000,0.0000202,0.0000000,0.0000000,0.0000040,0.0000000,0.0000000,0.0000000,0.0000202,0.0000000,0.0000000,0.0000040
426.5534870,,1.0099800,-0.9991134,0.0420116,-0.0015657,0.0022431,,,,0.0000000,0.0000000,0.0000000,0.2130947,4.8164411,-15.9049215,0.0000000,0.0000000,0.0000000,0.1009980,0.0001984,0.0000000,0.0000000,0.0000198,0.0000000,0.0000000,0.0000000,0.0001984,0.0000000,0.0000000,0.0000198,0.0000000,0.0000000,0.0000000,0.0001984,0.0000000,0.0000000,0.0000198,0.0000198,0.0000000,0.0000000,0.0000040,0.0000000,0.0000000,0.0000000,0.0000198,0.0000000,0.0000000,0.0000040,0.0000000,0.0000000,0.0000000,0.0000198,0.0000000,0.0000000,0.0000040
426.5656390,0.9998000,,-0.9991134,0.0420116,-0.0015657,0.0022431,0.0031294,0.0019473,-0.0034742,,,,0.2130947,4.8164411,-15.9049215,0.0000000,0.0000000,0.0000000,0.0199960,0.0001992,0.0000000,0.0000000,0.0000199,0.0000000,0.0000000,0.0000000,0.0001992,0.0000000,0.0000000,0.0000199,0.0000000,0.0000000,0.0000000,0.0001992,0.0000000,0.0000000,0.0000199,0.0000199,0.0000000,0.0000000,0.0000040,0.0000000,0.0000000,0.0000000,0.0000199,0.0000000,0.0000000,0.0000040,0.0000000,0.0000000,0.0000000,0.0000199,0.0000000,0.0000000,0.0000040
426.5789780,1.3499000,,-0.9991134,0.0420116,-0.0015503,0.0022247,-0.0010903,0.0061769,-0.0071082,,,,0.2130947,4.8164411,-15.9049215,0.0000000,0.0000000,0.0000000,0.0269980,0.0002003,0.0000000,0.0000000,0.0000200,0.0000000,0.0000000,0.0000000,0.0002003,0.0000000,0.0000000,0.0000200,0.0000000,0.0000000,0.0000000,0.0002003,0.0000000,0.0000000,0.0000200,0.0000200,0.0000000,0.0000000,0.0000040,0.0000000,0.0000000,0.0000000,0.0000200,0.0000000,0.0000000,0.0000040,0.0000000,0.0000000,0.0000000,0.0000200,0.0000000,0.0000000,0.0000040
426.5988570,0.9999000,,-0.9991136,0.0420117,-0.0015186,0.0022105,-0.0012013,-0.0022216,-0.0069721,,,,0.2130947,4.8164411,-15.9049215,0.0000000,0.0000000,0.0000000,0.0199980,0.0002011,0.0000000,0.0000000,0.0000201,0.0000000,0.0000000,0.0000000,0.0002011,0.0000000,0.0000000,0.0000201,0.0000000,0.0000000,0.0000000,0.0002011,0.0000000,0.0000000,0.0000201,0.0000201,0.0000000,0.0000000,0.0000040,0.0000000,0.0000000,0.0000000,0.0000201,0.0000000,0.0000000,0.0000040,0.0000000,0.0000000,0.0000000,0.0000201,0.0000000,0.0000000,0.0000040
426.6188030,1.0004500,,-0.9991136,0.0420118,-0.0014845,0.0022095,-0.0090311,0.0021393,-0.0088571,,,,0.2130947,4.8164411,-15.9049215,0.0000000,0.0000000,0.0000000,0.0200090,0.0002019,0.0000000,0.0000000,0.0000202,0.0000000,0.0000000,0.0000000,0.0002019,0.0000000,0.0000000,0.0000202,0.0000000,0.0000000,0.0000000,0.0002019,0.0000000,0.0000000,0.0000202,0.0000202,0.0000000,0.0000000,0.0000040,0.0000000,0.0000000,0.0000000,0.0000202,0.0000000,0.0000000,0.0000040,0.0000000,0.0000000,0.0000000,0.0000202,0.0000000,0.0000000,0.0000040
426.6397060,1.0495499,,-0.9991134,0.0420117,-0.0015121,0.0022281,0.0052729,-0.0010132,0.0021632,,,,0.2130947,4.8164411,-15.9049215,0.0000000,0.0000000,0.0000000,0.0209910,0.0002027,0.0000000,0.0000000,0.0000203,0.0000000,0.0000000,0.0000000,0.0002027,0.0000000,0.0000000,0.0000203,0.0000000,0.0000000,0.0000000,0.0002027,0.0000000,0.0000000,0.0000203,0.0000203,0.0000000,0.0000000,0.0000040,0.0000000,0.0000000,0.0000000,0.0000203,0.0000000,0.0000000,0.0000040,0.0000000,0.0000000,0.0000000,0.0000203,0.0000000,0.0000000,0.0000040
426.6556890,,1.0199900,-0.9991134,0.0420117,-0.0015121,0.0022281,,,,0.0000000,0.0000000,0.0000000,0.2130947,4.8164411,-15.9049215,0.0000000,0.0000000,0.0000000,0.1019990,0.0001987,0.0000000,0.0000000,0.0000199,0.0000000,0.0000000,0.0000000,0.0001987,0.0000000,0.0000000,0.0000199,0.0000000,0.0000000,0.0000000,0.0001987,0.0000000,0.0000000,0.0000199,0.0000199,0.0000000,0.0000000,0.0000040,0.0000000,0.0000000,0.0000000,0.0000199,0.0000000,0.0000000,0.0000040,0.0000000,0.0000000,0.0000000,0.0000199,0.0000000,0.0000000,0.0000040
426.6692030,1.1002001,,-0.9991134,0.0420117,-0.0015464,0.0022297,0.0057950,-0.0021164,-0.0018481,,,,0.2130947,4.8164411,-15.9049215,0.0000000,0.0000000,0.0000000,0.0220040,0.0001996,0.0000000,0.0000000,0.0000199,0.0000000,0.0000000,0.0000000,0.0001996,0.0000000,0.0000000,0.0000199,0.0000000,0.0000000,0.0000000,0.0001996,0.0000000,0.0000000,0.0000199,0.0000199,0.0000000,0.0000000,0.0000040,0.0000000,0.0000000,0.0000000,0.0000199,0.0000000,0.0000000,0.0000040,0.0000000,0.0000000,0.0000000,0.0000199,0.0000000,0.0000000,0.0000040
426.6826160,1.0497501,,-0.9991134,0.0420116,-0.0015587,0.0022034,0.0041106,0.0048470,0.0020057,,,,0.2130947,4.8164411,-15.9049215,0.0000000,0.0000000,0.0000000,0.0209950,0.0002004,0.0000000,0.0000000,0.0000200,0.0000000,0.0000000,0.0000000,0.0002004,0.0000000,0.0000000,0.0000200,0.0000000,0.0000000,0.0000000,0.0002004,0.0000000,0.0000000,0.0000200,0.0000200,0.0000000,0.0000000,0.0000040,0.0000000,0.0000000,0.0000000,0.0000200,0.0000000,0.0000000,0.0000040,0.0000000,0.0000000,0.0000000,0.0000200,0.0000000,0.0000000,0.0000040
426.7025810,1.0001000,,-0.9991135,0.0420116,-0.0015581,0.0021848,-0.0028275,0.0063679,-0.0033917,,,,0.2130947,4.8164411,-15.9049215,0.0000000,0.0000000,0.0000000,0.0200020,0.0002012,0.0000000,0.0000000,0.0000201,0.0000000,0.0000000,0.0000000,0.0002012,0.0000000,0.0000000,0.0000201,0.0000000,0.0000000,0.0000000,0.0002012,0.0000000,0.0000000,0.0000201,0.0000201,0.0000000,0.0000000,0.0000040,0.0000000,0.0000000,0.0000000,0.0000201,0.0000000,0.0000000,0.0000040,0.0000000,0.0000000,0.0000000,0.0000201,0.0000000,0.0000000,0.0000040
426.7226500,0.9999500,,-0.9991136,0.0420117,-0.0015288,0.0021706,-0.0015969,0.0058924,-0.0004751,,,,0.2130947,4.8164411,-15.9049215,0.0000000,0.0000000,0.0000000,0.0199990,0.0002020,0.0000000,0.0000000,0.0000202,0.0000000,0.0000000,0.0000000,0.0002020,0.0000000,0.0000000,0.0000202,0.0000000,0.0000000,0.0000000,0.0002020,0.0000000,0.0000000,0.0000202,0.0000202,0.0000000,0.0000000,0.0000040,0.0000000,0.0000000,0.0000000,0.0000202,0.0000000,0.0000000,0.0000040,0.0000000,0.0000000,0.0000000,0.0000202,0.0000000,0.0000000,0.0000040
426.7439320,1.0500500,,-0.9991136,0.0420117,-0.0015305,0.0021705,0.0053356,0.0017636,0.0034245,,,,0.2130947,4.8164411,-15.9049215,0.0000000,0.0000000,0.0000000,0.0210010,0.0002029,0.0000000,0.0000000,0.0000203,0.0000000,0.0000000,0.0000000,0.0002029,0.0000000,0.0000000,0.0000203,0.0000000,0.0000000,0.0000000,0.0002029,0.0000000,0.0000000,0.0000203,0.0000203,0.0000000,0.0000000,0.0000040,0.0000000,0.0000000,0.0000000,0.0000203,0.0000000,0.0000000,0.0000040,0.0000000,0.0000000,0.0000000,0.0000203,0.0000000,0.0000000,0.0000040
426.7598410,,1.0200200,-0.9991136,0.0420117,-0.0015305,0.0021705,,,,0.0000000,0.0000000,0.0000000,0.2130947,4.8164411,-15.9049215,0.0000000,0.0000000,0.0000000,0.1020020,0.0001988,0.0000000,0.0000000,0.0000199,0.0000000,0.0000000,0.0000000,0.0001988,0.0000000,0.0000000,0.0000199,0.0000000,0.0000000,0.0000000,0.0001988,0.0000000,0.0000000,0.0000199,0.0000199,0.0000000,0.0000000,0.0000040,0.0000000,0.0000000,0.0000000,0.0000199,0.0000000,0.0000000,0.0000040,0.0000000,0.0000000,0.0000000,0.0000199,0.0000000,0.0000000,0.0000040
426.7735030,1.1001501,,-0.9991136,0.0420117,-0.0015270,0.0021714,0.0029501,-0.0029863,0.0036654,,,,0.2130947,4.8164411,-15.9049215,0.0000000,0.0000000,0.0000000,0.0220030,0.0001997,0.0000000,0.0000000,0.0000200,0.0000000,0.0000000,0.0000000,0.0001997,0.0000000,0.0000000,0.0000200,0.0000000,0.0000000,0.0000000,0.0001997,0.0000000,0.0000000,0.0000200,0.0000200,0.0000000,0.0000000,0.0000040,0.0000000,0.0000000,0.0000000,0.0000200,0.0000000,0.0000000,0.0000040,0.0000000,0.0000000,0.0000000,0.0000200,0.0000000,0.0000000,0.0000040
426.7869030,1.0497501,,-0.9991137,0.0420118,-0.0014907,0.0021570,0.0052440,-0.0005090,-0.0003646,,,,0.2130947,4.8164411,-15.9049215,0.0000000,0.0000000,0.0000000,0.0209950,0.0002005,0.0000000,0.0000000,0.0000200,0.0000000,0.0000000,0.0000000,0.0002005,0.0000000,0.0000000,0.0000200,0.0000000,0.0000000,0.0000000,0.0002005,0.0000000,0.0000000,0.0000200,0.0000200,0.0000000,0.0000000,0.0000040,0.0000000,0.0000000,0.0000000,0.0000200,0.0000000,0.0000000,0.0000040,0.0000000,0.0000000,0.0000000,0.0000200,0.0000000,0.0000000,0.0000040
426.8066790,1.0006500,,-0.9991137,0.0420118,-0.0014694,0.0021517,0.0039571,-0.0039013,-0.0014030,,,,0.2130947,4.8164411,-15.9049215,0.0000000,0.0000000,0.0000000,0.0200130,0.0002013,0.0000000,0.0000000,0.0000201,0.0000000,0.0000000,0.0000000,0.0002013,0.0000000,0.0000000,0.0000201,0.0000000,0.0000000,0.0000000,0.0002013,0.0000000,0.0000000,0.0000201,0.0000201,0.0000000,0.0000000,0.0000040,0.0000000,0.0000000,0.0000000,0.0000201,0.0000000,0.0000000,0.0000040,0.0000000,0.0000000,0.0000000,0.0000201,0.0000000,0.0000000,0.0000040
426.8266960,0.9998500,,-0.9991137,0.0420119,-0.0014496,0.0021661,0.0013758,-0.0050787,-0.0077816,,,,0.2130947,4.8164411,-15.9049215,0.0000000,0.0000000,0.0000000,0.0199970,0.0002021,0.0000000,0.0000000,0.0000202,0.0000000,0.0000000,0.0000000,0.0002021,0.0000000,0.0000000,0.0000202,0.0000000,0.0000000,0.0000000,0.0002021,0.0000000,0.0000000,0.0000202,0.0000202,0.0000000,0.0000000,0.0000040,0.0000000,0.0000000,0.0000000,0.0000202,0.0000000,0.0000000,0.0000040,0.0000000,0.0000000,0.0000000,0.0000202,0.0000000,0.0000000,0.0000040
426.8476770,1.0495499,,-0.9991138,0.0420119,-0.0014297,0.0021495,0.0015729,-0.0022952,-0.0051115,,,,0.2130947,4.8164411,-15.9049215,0.0000000,0.0000000,0.0000000,0.0209910,0.0002030,0.0000000,0.0000000,0.0000203,0.0000000,0.0000000,0.0000000,0.0002030,0.0000000,0.0000000,0.0000203,0.0000000,0.0000000,0.0000000,0.0002030,0.0000000,0.0000000,0.0000203,0.0000203,0.0000000,0.0000000,0.0000040,0.0000000,0.0000000,0.0000000,0.0000203,0.0000000,0.0000000,0.0000040,0.0000000,0.0000000,0.0000000,0.0000203,0.0000000,0.0000000,0.0000040
426.8636520,,1.0000700,-0.9991138,0.0420119,-0.0014297,0.0021495,,,,0.0000000,0.0000000,0.0000000,0.2130947,4.8164411,-15.9049215,0.0000000,0.0000000,0.0000000,0.1000070,0.0001990,0.0000000,0.0000000,0.0000199,0.0000000,0.0000000,0.0000000,0.0001990,0.0000000,0.0000000,0.0000199,0.0000000,0.0000000,0.0000000,0.0001990,0.0000000,0.0000000,0.0000199,0.0000199,0.0000000,0.0000000,0.0000040,0.0000000,0.0000000,0.0000000,0.0000199,0.0000000,0.0000000,0.0000040,0.0000000,0.0000000,0.0000000,0.0000199,0.0000000,0.0000000,0.0000040
426.8773900,1.1001000,,-0.9991138,0.0420119,-0.0014212,0.0021508,-0.0051721,0.0015532,0.0020829,,,,0.2130947,4.8164411,-15.9049215,0.0000000,0.0000000,0.0000000,0.0220020,0.0001998,0.0000000,0.0000000,0.0000200,0.0000000,0.0000000,0.0000000,0.0001998,0.0000000,0.0000000,0.0000200,0.0000000,0.0000000,0.0000000,0.0001998,0.0000000,0.0000000,0.0000200,0.0000200,0.0000000,0.0000000,0.0000040,0.0000000,0.0000000,0.0000000,0.0000200,0.0000000,0.0000000,0.0000040,0.0000000,0.0000000,0.0000000,0.0000200,0.0000000,0.0000000,0.0000040
426.8911300,1.0501500,,-0.9991137,0.0420119,-0.0014480,0.0021540,-0.0042111,-0.0040833,0.0029946,,,,0.2130947,4.8164411,-15.9049215,0.0000000,0.0000000,0.0000000,0.0210030,0.0002007,0.0000000,0.0000000,0.0000201,0.0000000,0.0000000,0.0000000,0.0002007,0.0000000,0.0000000,0.0000201,0.0000000,0.0000000,0.0000000,0.0002007,0.0000000,0.0000000,0.0000201,0.0000201,0.0000000,0.0000000,0.0000040,0.0000000,0.0000000,0.0000000,0.0000201,0.0000000,0.0000000,0.0000040,0.0000000,0.0000000,0.0000000,0.0000201,0.0000000,0.0000000,0.0000040
426.9106560,1.0002501,,-0.9991137,0.0420119,-0.0014580,0.0021501,-0.0044554,-0.0066651,0.0032063,,,,0.2130947,4.8164411,-15.9049215,0.0000000,0.0000000,0.0000000,0.0200050,0.0002015,0.0000000,0.0000000,0.0000201,0.0000000,0.0000000,0.0000000,0.0002015,0.0000000,0.0000000,0.0000201,0.0000000,0.0000000,0.0000000,0.0002015,0.0000000,0.0000000,0.0000201,0.0000201,0.0000000,0.0000000,0.0000040,0.0000000,0.0000000,0.0000000,0.0000201,0.0000000,0.0000000,0.0000040,0.0000000,0.0000000,0.0000000,0.0000201,0.0000000,0.0000000,0.0000040
426.9317740,1.0495499,,-0.9991137,0.0420118,-0.0014929,0.0021577,0.0034180,0.0008484,-0.0018148,,,,0.2130947,4.8164411,-15.9049215,0.0000000,0.0000000,0.0000000,0.0209910,0.0002023,0.0000000,0.0000000,0.0000202,0.0000000,0.0000000,0.0000000,0.0002023,0.0000000,0.0000000,0.0000202,0.0000000,0.0000000,0.0000000,0.0002023,0.0000000,0.0000000,0.0000202,0.0000202,0.0000000,0.0000000,0.0000040,0.0000000,0.0000000,0.0000000,0.0000202,0.0000000,0.0000000,0.0000040,0.0000000,0.0000000,0.0000000,0.0000202,0.0000000,0.0000000,0.0000040
426.9528890,1.0498999,,-0.9991137,0.0420118,-0.0014961,0.0021698,-0.0043335,-0.0005066,0.0039754,,,,0.2130947,4.8164411,-15.9049215,0.0000000,0.0000000,0.0000000,0.0209980,0.0002032,0.0000000,0.0000000,0.0000203,0.0000000,0.0000000,0.0000000,0.0002032,0.0000000,0.0000000,0.0000203,0.0000000,0.0000000,0.0000000,0.0002032,0.0000000,0.0000000,0.0000203,0.0000203,0.0000000,0.0000000,0.0000040,0.0000000,0.0000000,0.0000000,0.0000203,0.0000000,0.0000000,0.0000040,0.0000000,0.0000000,0.0000000,0.0000203,0.0000000,0.0000000,0.0000040
426.9677620,,0.9999400,-0.9991137,0.0420118,-0.0014961,0.0021698,,,,0.0000000,0.0000000,0.0000000,0.2130947,4.8164411,-15.9049215,0.0000000,0.0000000,0.0000000,0.0999940,0.0001991,0.0000000,0.0000000,0.0000199,0.0000000,0.0000000,0.0000000,0.0001991,0.0000000,0.0000000,0.0000199,0.0000000,0.0000000,0.0000000,0.0001991,0.0000000,0.0000000,0.0000199,0.0000199,0.0000000,0.0000000,0.0000040,0.0000000,0.0000000,0.0000000,0.0000199,0.0000000,0.0000000,0.0000040,0.0000000,0.0000000,0.0000000,0.0000199,0.0000000,0.0000000,0.0000040
426.9813100,1.0003500,,-0.9991136,0.0420119,-0.0014984,0.0021813,-0.0035705,-0.0062958,0.0034525,,,,0.2130947,4.8164411,-15.9049215,0.0000000,0.0000000,0.0000000,0.0200070,0.0001999,0.0000000,0.0000000,0.0000200,0.0000000,0.0000000,0.0000000,0.0001999,0.0000000,0.0000000,0.0000200,0.0000000,0.0000000,0.0000000,0.0001999,0.0000000,0.0000000,0.0000200,0.0000200,0.0000000,0.0000000,0.0000040,0.0000000,0.0000000,0.0000000,0.0000200,0.0000000,0.0000000,0.0000040,0.0000000,0.0000000,0.0000000,0.0000200,0.0000000,0.0000000,0.0000040
426.9946710,1.0996500,,-0.9991136,0.0420119,-0.0015002,0.0021768,-0.0048981,0.0029938,-0.0024241,,,,0.2130947,4.8164411,-15.9049215,0.0000000,0.0000000,0.0000000,0.0219930,0.0002008,0.0000000,0.0000000,0.0000201,0.0000000,0.0000000,0.0000000,0.0002008,0.0000000,0.0000000,0.0000201,0.0000000,0.0000000,0.0000000,0.0002008,0.0000000,0.0000000,0.0000201,0.0000201,0.0000000,0.0000000,0.0000040,0.0000000,0.0000000,0.0000000,0.0000201,0.0000000,0.0000000,0.0000040,0.0000000,0.0000000,0.0000000,0.0000201,0.0000000,0.0000000,0.0000040
427.0160010,1.0505000,,-0.9991136,0.0420118,-0.0015115,0.0021707,-0.0011902,0.0027481,0.0044032,,,,0.2130947,4.8164411,-15.9049215,0.0000000,0.0000000,0.0000000,0.0210100,0.0002016,0.0000000,0.0000000,0.0000202,0.0000000,0.0000000,0.0000000,0.0002016,0.0000000,0.0000000,0.0000202,0.0000000,0.0000000,0.0000000,0.0002016,0.0000000,0.0000000,0.0000202,0.0000202,0.0000000,0.0000000,0.0000040,0.0000000,0.0000000,0.0000000,0.0000202,0.0000000,0.0000000,0.0000040,0.0000000,0.0000000,0.0000000,0.0000202,0.0000000,0.0000000,0.0000040
427.0359640,0.9998000,,-0.9991137,0.0420118,-0.0015276,0.0021329,-0.0005798,0.0084160,0.0051313,,,,0.2130947,4.8164411,-15.9049215,0.0000000,0.0000000,0.0000000,0.0199960,0.0002024,0.0000000,0.0000000,0.0000202,0.0000000,0.0000000,0.0000000,0.0002024,0.0000000,0.0000000,0.0000202,0.0000000,0.0000000,0.0000000,0.0002024,0.0000000,0.0000000,0.0000202,0.0000202,0.0000000,0.0000000,0.0000040,0.0000000,0.0000000,0.0000000,0.0000202,0.0000000,0.0000000,0.0000040,0.0000000,0.0000000,0.0000000,0.0000202,0.0000000,0.0000000,0.0000040
427.0557920,,0.9999900,-0.9991137,0.0420118,-0.0015242,0.0021254,,,,0.0000000,0.0000000,0.0000000,0.2130947,4.8164411,-15.9049215,0.0000000,0.0000000,0.0000000,0.0999990,0.0001984,0.0000000,0.0000000,0.0000198,0.0000000,0.0000000,0.0000000,0.0001984,0.0000000,0.0000000,0.0000198,0.0000000,0.0000000,0.0000000,0.0001984,0.0000000,0.0000000,0.0000198,0.0000198,0.0000000,0.0000000,0.0000040,0.0000000,0.0000000,0.0000000,0.0000198,0.0000000,0.0000000,0.0000040,0.0000000,0.0000000,0.0000000,0.0000198,0.0000000,0.0000000,0.0000040
427.0693460,1.0000501,,-0.9991137,0.0420118,-0.0015242,0.0021254,-0.0034256,0.0007748,0.0023215,,,,0.2130947,4.8164411,-15.9049215,0.0000000,0.0000000,0.0000000,0.0200010,0.0001992,0.0000000,0.0000000,0.0000199,0.0000000,0.0000000,0.0000000,0.0001992,0.0000000,0.0000000,0.0000199,0.0000000,0.0000000,0.0000000,0.0001992,0.0000000,0.0000000,0.0000199,0.0000199,0.0000000,0.0000000,0.0000040,0.0000000,0.0000000,0.0000000,0.0000199,0.0000000,0.0000000,0.0000040,0.0000000,0.0000000,0.0000000,0.0000199,0.0000000,0.0000000,0.0000040
427.0831750,1.3496500,,-0.9991136,0.0420117,-0.0015511,0.0021468,0.0019341,0.0009138,-0.0039662,,,,0.2130947,4.8164411,-15.9049215,0.0000000,0.0000000,0.0000000,0.0269930,0.0002003,0.0000000,0.0000000,0.0000200,0.0000000,0.0000000,0.0000000,0.0002003,0.0000000,0.0000000,0.0000200,0.0000000,0.0000000,0.0000000,0.0002003,0.0000000,0.0000000,0.0000200,0.0000200,0.0000000,0.0000000,0.0000040,0.0000000,0.0000000,0.0000000,0.0000200,0.0000000,0.0000000,0.0000040,0.0000000,0.0000000,0.0000000,0.0000200,0.0000000,0.0000000,0.0000040
427.1027890,1.0000501,,-0.9991135,0.0420117,-0.0015690,0.0021691,0.0046062,-0.0021676,-0.0032038,,,,0.2130947,4.8164411,-15.9049215,0.0000000,0.0000000,0.0000000,0.0200010,0.0002011,0.0000000,0.0000000,0.0000201,0.0000000,0.0000000,0.0000000,0.0002011,0.0000000,0.0000000,0.0000201,0.0000000,0.0000000,0.0000000,0.0002011,0.0000000,0.0000000,0.0000201,0.0000201,0.0000000,0.0000000,0.0000040,0.0000000,0.0000000,0.0000000,0.0000201,0.0000000,0.0000000,0.0000040,0.0000000,0.0000000,0.0000000,0.0000201,0.0000000,0.0000000,0.0000040
427.1229220,1.0000000,,-0.9991134,0.0420118,-0.0015769,0.0021918,0.0008154,-0.0009999,-0.0008695,,,,0.2130947,4.8164411,-15.9049215,0.0000000,0.0000000,0.0000000,0.0200000,0.0002019,0.0000000,0.0000000,0.0000202,0.0000000,0.0000000,0.0000000,0.0002019,0.0000000,0.0000000,0.0000202,0.0000000,0.0000000,0.0000000,0.0002019,0.0000000,0.0000000,0.0000202,0.0000202,0.0000000,0.0000000,0.0000040,0.0000000,0.0000000,0.0000000,0.0000202,0.0000000,0.0000000,0.0000040,0.0000000,0.0000000,0.0000000,0.0000202,0.0000000,0.0000000,0.0000040
427.1427030,1.0005001,,-0.9991134,0.0420118,-0.0015796,0.0022199,-0.0015607,-0.0064814,0.0010301,,,,0.2130947,4.8164411,-15.9049215,0.0000000,0.0000000,0.0000000,0.0200100,0.0002027,0.0000000,0.0000000,0.0000203,0.0000000,0.0000000,0.0000000,0.0002027,0.0000000,0.0000000,0.0000203,0.0000000,0.0000000,0.0000000,0.0002027,0.0000000,0.0000000,0.0000203,0.0000203,0.0000000,0.0000000,0.0000040,0.0000000,0.0000000,0.0000000,0.0000203,0.0000000,0.0000000,0.0000040,0.0000000,0.0000000,0.0000000,0.0000203,0.0000000,0.0000000,0.0000040
427.1587370,,1.0165499,-0.9991134,0.0420118,-0.0015796,0.0022199,,,,0.0000000,0.0000000,0.0000000,0.2130947,4.8164411,-15.9049215,0.0000000,0.0000000,0.0000000,0.1016550,0.0001987,0.0000000,0.0000000,0.0000199,0.0000000,0.0000000,0.0000000,0.0001987,0.0000000,0.0000000,0.0000199,0.0000000,0.0000000,0.0000000,0.0001987,0.0000000,0.0000000,0.0000199,0.0000199,0.0000000,0.0000000,0.0000040,0.0000000,0.0000000,0.0000000,0.0000199,0.0000000,0.0000000,0.0000040,0.0000000,0.0000000,0.0000000,0.0000199,0.0000000,0.0000000,0.0000040
427.1724150,1.0997500,,-0.9991134,0.0420119,-0.0015537,0.0022260,-0.0039160,-0.0031415,-0.0002174,,,,0.2130947,4.8164411,-15.9049215,0.0000000,0.0000000,0.0000000,0.0219950,0.0001996,0.0000000,0.0000000,0.0000199,0.0000000,0.0000000,0.0000000,0.0001996,0.0000000,0.0000000,0.0000199,0.0000000,0.0000000,0.0000000,0.0001996,0.0000000,0.0000000,0.0000199,0.0000199,0.0000000,0.0000000,0.0000040,0.0000000,0.0000000,0.0000000,0.0000199,0.0000000,0.0000000,0.0000040,0.0000000,0.0000000,0.0000000,0.0000199,0.0000000,0.0000000,0.0000040
427.1859140,1.0500000,,-0.9991134,0.0420120,-0.0015271,0.0022447,-0.0031177,-0.0065680,-0.0010852,,,,0.2130947,4.8164411,-15.9049215,0.0000000,0.0000000,0.0000000,0.0210000,0.0002004,0.0000000,0.0000000,0.0000200,0.0000000,0.0000000,0.0000000,0.0002004,0.0000000,0.0000000,0.0000200,0.0000000,0.0000000,0.0000000,0.0002004,0.0000000,0.0000000,0.0000200,0.0000200,0.0000000,0.0000000,0.0000040,0.0000000,0.0000000,0.0000000,0.0000200,0.0000000,0.0000000,0.0000040,0.0000000,0.0000000,0.0000000,0.0000200,0.0000000,0.0000000,0.0000040
427.2069150,1.0501001,,-0.9991134,0.0420121,-0.0015041,0.0022359,-0.0056253,0.0038876,-0.0046930,,,,0.2130947,4.8164411,-15.9049215,0.0000000,0.0000000,0.0000000,0.0210020,0.0002012,0.0000000,0.0000000,0.0000201,0.0000000,0.0000000,0.0000000,0.0002012,0.0000000,0.0000000,0.0000201,0.0000000,0.0000000,0.0000000,0.0002012,0.0000000,0.0000000,0.0000201,0.0000201,0.0000000,0.0000000,0.0000040,0.0000000,0.0000000,0.0000000,0.0000201,0.0000000,0.0000000,0.0000040,0.0000000,0.0000000,0.0000000,0.0000201,0.0000000,0.0000000,0.0000040
427.2269630,0.9997000,,-0.9991136,0.0420121,-0.0014825,0.0022201,-0.0093053,0.0037215,0.0003390,,,,0.2130947,4.8164411,-15.9049215,0.0000000,0.0000000,0.0000000,0.0199940,0.0002020,0.0000000,0.0000000,0.0000202,0.0000000,0.0000000,0.0000000,0.0002020,0.0000000,0.0000000,0.0000202,0.0000000,0.0000000,0.0000000,0.0002020,0.0000000,0.0000000,0.0000202,0.0000202,0.0000000,0.0000000,0.0000040,0.0000000,0.0000000,0.0000000,0.0000202,0.0000000,0.0000000,0.0000040,0.0000000,0.0000000,0.0000000,0.0000202,0.0000000,0.0000000,0.0000040
427.2466510,1.0002999,,-0.9991136,0.0420122,-0.0014535,0.0022281,-0.0101305,0.0048896,-0.0005629,,,,0.2130947,4.8164411,-15.9049215,0.0000000,0.0000000,0.0000000,0.0200060,0.0002028,0.0000000,0.0000000,0.0000203,0.0000000,0.0000000,0.0000000,0.0002028,0.0000000,0.0000000,0.0000203,0.0000000,0.0000000,0.0000000,0.0002028,0.0000000,0.0000000,0.0000203,0.0000203,0.0000000,0.0000000,0.0000040,0.0000000,0.0000000,0.0000000,0.0000203,0.0000000,0.0000000,0.0000040,0.0000000,0.0000000,0.0000000,0.0000203,0.0000000,0.0000000,0.0000040
427.2627440,,1.0035700,-0.9991136,0.0420122,-0.0014535,0.0022281,,,,0.0000000,0.0000000,0.0000000,0.2130947,4.8164411,-15.9049215,0.0000000,0.0000000,0.0000000,0.1003570,0.0001988,0.0000000,0.0000000,0.0000199,0.0000000,0.0000000,0.0000000,0.0001988,0.0000000,0.0000000,0.0000199,0.0000000,0.0000000,0.0000000,0.0001988,0.0000000,0.0000000,0.0000199,0.0000199,0.0000000,0.0000000,0.0000040,0.0000000,0.0000000,0.0000000,0.0000199,0.0000000,0.0000000,0.0000040,0.0000000,0.0000000,0.0000000,0.0000199,0.0000000,0.0000000,0.0000040
427.2764340,0.9997000,,-0.9991136,0.0420122,-0.0014472,0.0022036,-0.0007928,0.0027347,-0.0019904,,,,0.2130947,4.8164411,-15.9049215,0.0000000,0.0000000,0.0000000,0.0199940,0.0001996,0.0000000,0.0000000,0.0000199,0.0000000,0.0000000,0.0000000,0.0001996,0.0000000,0.0000000,0.0000199,0.0000000,0.0000000,0.0000000,0.0001996,0.0000000,0.0000000,0.0000199,0.0000199,0.0000000,0.0000000,0.0000040,0.0000000,0.0000000,0.0000000,0.0000199,0.0000000,0.0000000,0.0000040,0.0000000,0.0000000,0.0000000,0.0000199,0.0000000,0.0000000,0.0000040
427.2895800,1.1499000,,-0.9991137,0.0420121,-0.0014634,0.0021778,0.0035938,0.0033357,-0.0041690,,,,0.2130947,4.8164411,-15.9049215,0.0000000,0.0000000,0.0000000,0.0229980,0.0002005,0.0000000,0.0000000,0.0000200,0.0000000,0.0000000,0.0000000,0.0002005,0.0000000,0.0000000,0.0000200,0.0000000,0.0000000,0.0000000,0.0002005,0.0000000,0.0000000,0.0000200,0.0000200,0.0000000,0.0000000,0.0000040,0.0000000,0.0000000,0.0000000,0.0000200,0.0000000,0.0000000,0.0000040,0.0000000,0.0000000,0.0000000,0.0000200,0.0000000,0.0000000,0.0000040
427.3109990,1.0501001,,-0.9991137,0.0420121,-0.0014703,0.0021684,-0.0032461,-0.0007506,-0.0042818,,,,0.2130947,4.8164411,-15.9049215,0.0000000,0.0000000,0.0000000,0.0210020,0.0002014,0.0000000,0.0000000,0.0000201,0.0000000,0.0000000,0.0000000,0.0002014,0.0000000,0.0000000,0.0000201,0.0000000,0.0000000,0.0000000,0.0002014,0.0000000,0.0000000,0.0000201,0.0000201,0.0000000,0.0000000,0.0000040,0.0000000,0.0000000,0.0000000,0.0000201,0.0000000,0.0000000,0.0000040,0.0000000,0.0000000,0.0000000,0.0000201,0.0000000,0.0000000,0.0000040
427.3307720,1.0001501,,-0.9991137,0.0420121,-0.0014826,0.0021621,0.0025960,0.0028214,-0.0031175,,,,0.2130947,4.8164411,-15.9049215,0.0000000,0.0000000,0.0000000,0.0200030,0.0002022,0.0000000,0.0000000,0.0000202,0.0000000,0.0000000,0.0000000,0.0002022,0.0000000,0.0000000,0.0000202,0.0000000,0.0000000,0.0000000,0.0002022,0.0000000,0.0000000,0.0000202,0.0000202,0.0000000,0.0000000,0.0000040,0.0000000,0.0000000,0.0000000,0.0000202,0.0000000,0.0000000,0.0000040,0.0000000,0.0000000,0.0000000,0.0000202,0.0000000,0.0000000,0.0000040
427.3517960,1.0502501,,-0.9991136,0.0420121,-0.0014754,0.0021912,-0.0020284,0.0017388,-0.0013146,,,,0.2130947,4.8164411,-15.9049215,0.0000000,0.0000000,0.0000000,0.0210050,0.0002030,0.0000000,0.0000000,0.0000203,0.0000000,0.0000000,0.0000000,0.0002030,0.0000000,0.0000000,0.0000203,0.0000000,0.0000000,0.0000000,0.0002030,0.0000000,0.0000000,0.0000203,0.0000203,0.0000000,0.0000000,0.0000040,0.0000000,0.0000000,0.0000000,0.0000203,0.0000000,0.0000000,0.0000040,0.0000000,0.0000000,0.0000000,0.0000203,0.0000000,0.0000000,0.0000040
427.3676000,,0.9999300,-0.9991136,0.0420121,-0.0014754,0.0021912,,,,0.0000000,0.0000000,0.0000000,0.2130947,4.8164411,-15.9049215,0.0000000,0.0000000,0.0000000,0.0999930,0.0001990,0.0000000,0.0000000,0.0000199,0.0000000,0.0000000,0.0000000,0.0001990,0.0000000,0.0000000,0.0000199,0.0000000,0.0000000,0.0000000,0.0001990,0.0000000,0.0000000,0.0000199,0.0000199,0.0000000,0.0000000,0.0000040,0.0000000,0.0000000,0.0000000,0.0000199,0.0000000,0.0000000,0.0000040,0.0000000,0.0000000,0.0000000,0.0000199,0.0000000,0.0000000,0.0000040
427.3816510,0.9998500,,-0.9991136,0.0420121,-0.0014802,0.0022024,0.0022359,-0.0000233,-0.0018780,,,,0.2130947,4.8164411,-15.9049215,0.0000000,0.0000000,0.0000000,0.0199970,0.0001998,0.0000000,0.0000000,0.0000200,0.0000000,0.0000000,0.0000000,0.0001998,0.0000000,0.0000000,0.0000200,0.0000000,0.0000000,0.0000000,0.0001998,0.0000000,0.0000000,0.0000200,0.0000200,0.0000000,0.0000000,0.0000040,0.0000000,0.0000000,0.0000000,0.0000200,0.0000000,0.0000000,0.0000040,0.0000000,0.0000000,0.0000000,0.0000200,0.0000000,0.0000000,0.0000040
427.3946010,1.1496500,,-0.9991136,0.0420122,-0.0014650,0.0022191,0.0034297,-0.0040628,0.0015024,,,,0.2130947,4.8164411,-15.9049215,0.0000000,0.0000000,0.0000000,0.0229930,0.0002007,0.0000000,0.0000000,0.0000201,0.0000000,0.0000000,0.0000000,0.0002007,0.0000000,0.0000000,0.0000201,0.0000000,0.0000000,0.0000000,0.0002007,0.0000000,0.0000000,0.0000201,0.0000201,0.0000000,0.0000000,0.0000040,0.0000000,0.0000000,0.0000000,0.0000201,0.0000000,0.0000000,0.0000040,0.0000000,0.0000000,0.0000000,0.0000201,0.0000000,0.0000000,0.0000040
427.4159620,1.0506001,,-0.9991136,0.0420123,-0.0014469,0.0022322,0.0020963,-0.0050984,-0.0002254,,,,0.2130947,4.8164411,-15.9049215,0.0000000,0.0000000,0.0000000,0.0210120,0.0002015,0.0000000,0.0000000,0.0000201,0.0000000,0.0000000,0.0000000,0.0002015,0.0000000,0.0000000,0.0000201,0.0000000,0.0000000,0.0000000,0.0002015,0.0000000,0.0000000,0.0000201,0.0000201,0.0000000,0.0000000,0.0000040,0.0000000,0.0000000,0.0000000,0.0000201,0.0000000,0.0000000,0.0000040,0.0000000,0.0000000,0.0000000,0.0000201,0.0000000,0.0000000,0.0000040
