t,predict_cpu,update_cpu,quat_x,quat_y,quat_z,quat_w,accel_x,accel_y,accel_z,of_x,of_y,of_z,x_x,x_y,x_z,x_vx,x_vy,x_vz,dt,P_0,P_1,P_2,P_3,P_4,P_5,P_6,P_7,P_8,P_9,P_10,P_11,P_12,P_13,P_14,P_15,P_16,P_17,P_18,P_19,P_20,P_21,P_22,P_23,P_24,P_25,P_26,P_27,P_28,P_29,P_30,P_31,P_32,P_33,P_34,P_35
31.9662160,,0.9998100,-0.9873443,-0.1585773,0.0001114,0.0021151,,,,0.0000000,0.0000000,0.0000000,1.1545172,-7.1700058,-21.3562450,0.0000000,0.0000000,0.0000000,0.0999810,0.0513850,0.0000000,0.0000000,0.0071031,0.0000000,0.0000000,0.0000000,0.0513850,0.0000000,0.0000000,0.0071031,0.0000000,0.0000000,0.0000000,0.0513850,0.0000000,0.0000000,0.0071031,0.0071031,0.0000000,0.0000000,0.0019769,0.0000000,0.0000000,0.0000000,0.0071031,0.0000000,0.0000000,0.0019769,0.0000000,0.0000000,0.0000000,0.0071031,0.0000000,0.0000000,0.0019769
31.9796420,0.9996000,,-0.9873443,-0.1585773,0.0001114,0.0021151,-0.0022950,-0.0057128,-0.0074349,,,,1.1545172,-7.1700058,-21.3562450,0.0000000,0.0000000,0.0000000,0.0199920,0.0516691,0.0000000,0.0000000,0.0071427,0.0000000,0.0000000,0.0000000,0.0516691,0.0000000,0.0000000,0.0071427,0.0000000,0.0000000,0.0000000,0.0516691,0.0000000,0.0000000,0.0071427,0.0071427,0.0000000,0.0000000,0.0019824,0.0000000,0.0000000,0.0000000,0.0071427,0.0000000,0.0000000,0.0019824,0.0000000,0.0000000,0.0000000,0.0071427,0.0000000,0.0000000,0.0019824
31.9930650,1.4001000,,-0.9873443,-0.1585773,0.0001316,0.0021404,-0.0045121,-0.0067932,-0.0024967,,,,1.1545172,-7.1700058,-21.3562450,0.0000000,0.0000000,0.0000000,0.0280020,0.0520691,0.0000000,0.0000000,0.0071983,0.0000000,0.0000000,0.0000000,0.0520691,0.0000000,0.0000000,0.0071983,0.0000000,0.0000000,0.0000000,0.0520691,0.0000000,0.0000000,0.0071983,0.0071983,0.0000000,0.0000000,0.0019901,0.0000000,0.0000000,0.0000000,0.0071983,0.0000000,0.0000000,0.0019901,0.0000000,0.0000000,0.0000000,0.0071983,0.0000000,0.0000000,0.0019901
32.0129850,0.9999000,,-0.9873443,-0.1585773,0.0001300,0.0021441,-0.0007607,-0.0017410,0.0026579,,,,1.1545172,-7.1700058,-21.3562450,0.0000000,0.0000000,0.0000000,0.0199980,0.0523570,0.0000000,0.0000000,0.0072382,0.0000000,0.0000000,0.0000000,0.0523570,0.0000000,0.0000000,0.0072382,0.0000000,0.0000000,0.0000000,0.0523570,0.0000000,0.0000000,0.0072382,0.0072382,0.0000000,0.0000000,0.0019956,0.0000000,0.0000000,0.0000000,0.0072382,0.0000000,0.0000000,0.0019956,0.0000000,0.0000000,0.0000000,0.0072382,0.0000000,0.0000000,0.0019956
32.0329740,0.9998000,,-0.9873443,-0.1585773,0.0001092,0.0021326,0.0010845,0.0012428,0.0020614,,,,1.1545172,-7.1700058,-21.3562450,0.0000000,0.0000000,0.0000000,0.0199960,0.0526465,0.0000000,0.0000000,0.0072781,0.0000000,0.0000000,0.0000000,0.0526465,0.0000000,0.0000000,0.0072781,0.0000000,0.0000000,0.0000000,0.0526465,0.0000000,0.0000000,0.0072781,0.0072781,0.0000000,0.0000000,0.0020011,0.0000000,0.0000000,0.0000000,0.0072781,0.0000000,0.0000000,0.0020011,0.0000000,0.0000000,0.0000000,0.0072781,0.0000000,0.0000000,0.0020011
32.0527580,1.0003500,,-0.9873443,-0.1585772,0.0001502,0.0021432,-0.0030283,-0.0016140,0.0010307,,,,1.1545172,-7.1700058,-21.3562450,0.0000000,0.0000000,0.0000000,0.0200070,0.0529377,0.0000000,0.0000000,0.0073182,0.0000000,0.0000000,0.0000000,0.0529377,0.0000000,0.0000000,0.0073182,0.0000000,0.0000000,0.0000000,0.0529377,0.0000000,0.0000000,0.0073182,0.0073182,0.0000000,0.0000000,0.0020065,0.0000000,0.0000000,0.0000000,0.0073182,0.0000000,0.0000000,0.0020065,0.0000000,0.0000000,0.0000000,0.0073182,0.0000000,0.0000000,0.0020065
32.0688780,,1.0000800,-0.9873443,-0.1585772,0.0001502,0.0021432,,,,0.0000000,0.0000000,0.0000000,1.1545172,-7.1700058,-21.3562450,0.0000000,0.0000000,0.0000000,0.1000080,0.0514862,0.0000000,0.0000000,0.0071176,0.0000000,0.0000000,0.0000000,0.0514862,0.0000000,0.0000000,0.0071176,0.0000000,0.0000000,0.0000000,0.0514862,0.0000000,0.0000000,0.0071176,0.0071176,0.0000000,0.0000000,0.0019788,0.0000000,0.0000000,0.0000000,0.0071176,0.0000000,0.0000000,0.0019788,0.0000000,0.0000000,0.0000000,0.0071176,0.0000000,0.0000000,0.0019788
32.0824920,1.0997001,,-0.9873443,-0.1585772,0.0001582,0.0021467,0.0022166,-0.0032942,0.0007595,,,,1.1545172,-7.1700058,-21.3562450,0.0000000,0.0000000,0.0000000,0.0219940,0.0517993,0.0000000,0.0000000,0.0071611,0.0000000,0.0000000,0.0000000,0.0517993,0.0000000,0.0000000,0.0071611,0.0000000,0.0000000,0.0000000,0.0517993,0.0000000,0.0000000,0.0071611,0.0071611,0.0000000,0.0000000,0.0019848,0.0000000,0.0000000,0.0000000,0.0071611,0.0000000,0.0000000,0.0019848,0.0000000,0.0000000,0.0000000,0.0071611,0.0000000,0.0000000,0.0019848
32.0957440,1.0498999,,-0.9873443,-0.1585772,0.0001656,0.0021468,0.0004522,-0.0021811,-0.0008410,,,,1.1545172,-7.1700058,-21.3562450,0.0000000,0.0000000,0.0000000,0.0209980,0.0521000,0.0000000,0.0000000,0.0072029,0.0000000,0.0000000,0.0000000,0.0521000,0.0000000,0.0000000,0.0072029,0.0000000,0.0000000,0.0000000,0.0521000,0.0000000,0.0000000,0.0072029,0.0072029,0.0000000,0.0000000,0.0019906,0.0000000,0.0000000,0.0000000,0.0072029,0.0000000,0.0000000,0.0019906,0.0000000,0.0000000,0.0000000,0.0072029,0.0000000,0.0000000,0.0019906
32.1171720,1.0001000,,-0.9873443,-0.1585772,0.0001688,0.0021564,0.0059176,-0.0038066,-0.0011529,,,,1.1545172,-7.1700058,-21.3562450,0.0000000,0.0000000,0.0000000,0.0200020,0.0523881,0.0000000,0.0000000,0.0072427,0.0000000,0.0000000,0.0000000,0.0523881,0.0000000,0.0000000,0.0072427,0.0000000,0.0000000,0.0000000,0.0523881,0.0000000,0.0000000,0.0072427,0.0072427,0.0000000,0.0000000,0.0019961,0.0000000,0.0000000,0.0000000,0.0072427,0.0000000,0.0000000,0.0019961,0.0000000,0.0000000,0.0000000,0.0072427,0.0000000,0.0000000,0.0019961
32.1358940,0.9998500,,-0.9873442,-0.1585772,0.0001885,0.0021761,0.0011125,-0.0040930,0.0043064,,,,1.1545172,-7.1700058,-21.3562450,0.0000000,0.0000000,0.0000000,0.0199970,0.0526778,0.0000000,0.0000000,0.0072827,0.0000000,0.0000000,0.0000000,0.0526778,0.0000000,0.0000000,0.0072827,0.0000000,0.0000000,0.0000000,0.0526778,0.0000000,0.0000000,0.0072827,0.0072827,0.0000000,0.0000000,0.0020016,0.0000000,0.0000000,0.0000000,0.0072827,0.0000000,0.0000000,0.0020016,0.0000000,0.0000000,0.0000000,0.0072827,0.0000000,0.0000000,0.0020016
32.1559400,1.0000501,,-0.9873441,-0.1585772,0.0001817,0.0021804,0.0016091,-0.0001010,0.0043504,,,,1.1545172,-7.1700058,-21.3562450,0.0000000,0.0000000,0.0000000,0.0200010,0.0529691,0.0000000,0.0000000,0.0073228,0.0000000,0.0000000,0.0000000,0.0529691,0.0000000,0.0000000,0.0073228,0.0000000,0.0000000,0.0000000,0.0529691,0.0000000,0.0000000,0.0073228,0.0073228,0.0000000,0.0000000,0.0020071,0.0000000,0.0000000,0.0000000,0.0073228,0.0000000,0.0000000,0.0020071,0.0000000,0.0000000,0.0000000,0.0073228,0.0000000,0.0000000,0.0020071
32.1718690,,1.0199400,-0.9873441,-0.1585772,0.0001817,0.0021804,,,,0.0000000,0.0000000,0.0000000,1.1545172,-7.1700058,-21.3562450,0.0000000,0.0000000,0.0000000,0.1019940,0.0515159,0.0000000,0.0000000,0.0071219,0.0000000,0.0000000,0.0000000,0.0515159,0.0000000,0.0000000,0.0071219,0.0000000,0.0000000,0.0000000,0.0515159,0.0000000,0.0000000,0.0071219,0.0071219,0.0000000,0.0000000,0.0019793,0.0000000,0.0000000,0.0000000,0.0071219,0.0000000,0.0000000,0.0019793,0.0000000,0.0000000,0.0000000,0.0071219,0.0000000,0.0000000,0.0019793
32.1857100,1.0003999,,-0.9873441,-0.1585772,0.0001564,0.0021798,0.0013234,0.0057860,0.0053491,,,,1.1545172,-7.1700058,-21.3562450,0.0000000,0.0000000,0.0000000,0.0200080,0.0518009,0.0000000,0.0000000,0.0071616,0.0000000,0.0000000,0.0000000,0.0518009,0.0000000,0.0000000,0.0071616,0.0000000,0.0000000,0.0000000,0.0518009,0.0000000,0.0000000,0.0071616,0.0071616,0.0000000,0.0000000,0.0019848,0.0000000,0.0000000,0.0000000,0.0071616,0.0000000,0.0000000,0.0019848,0.0000000,0.0000000,0.0000000,0.0071616,0.0000000,0.0000000,0.0019848
32.1987700,1.1495500,,-0.9873441,-0.1585773,0.0001281,0.0021852,-0.0039770,0.0045867,-0.0000110,,,,1.1545172,-7.1700058,-21.3562450,0.0000000,0.0000000,0.0000000,0.0229910,0.0521302,0.0000000,0.0000000,0.0072073,0.0000000,0.0000000,0.0000000,0.0521302,0.0000000,0.0000000,0.0072073,0.0000000,0.0000000,0.0000000,0.0521302,0.0000000,0.0000000,0.0072073,0.0072072,0.0000000,0.0000000,0.0019911,0.0000000,0.0000000,0.0000000,0.0072072,0.0000000,0.0000000,0.0019911,0.0000000,0.0000000,0.0000000,0.0072072,0.0000000,0.0000000,0.0019911
32.2199090,1.0504000,,-0.9873441,-0.1585774,0.0000949,0.0022050,-0.0003253,-0.0006211,-0.0009821,,,,1.1545172,-7.1700058,-21.3562450,0.0000000,0.0000000,0.0000000,0.0210080,0.0524330,0.0000000,0.0000000,0.0072491,0.0000000,0.0000000,0.0000000,0.0524330,0.0000000,0.0000000,0.0072491,0.0000000,0.0000000,0.0000000,0.0524330,0.0000000,0.0000000,0.0072491,0.0072491,0.0000000,0.0000000,0.0019969,0.0000000,0.0000000,0.0000000,0.0072491,0.0000000,0.0000000,0.0019969,0.0000000,0.0000000,0.0000000,0.0072491,0.0000000,0.0000000,0.0019969
32.2399000,0.9996000,,-0.9873440,-0.1585774,0.0000705,0.0022216,-0.0004678,-0.0010201,0.0014621,,,,1.1545172,-7.1700058,-21.3562450,0.0000000,0.0000000,0.0000000,0.0199920,0.0527229,0.0000000,0.0000000,0.0072891,0.0000000,0.0000000,0.0000000,0.0527229,0.0000000,0.0000000,0.0072891,0.0000000,0.0000000,0.0000000,0.0527229,0.0000000,0.0000000,0.0072891,0.0072891,0.0000000,0.0000000,0.0020023,0.0000000,0.0000000,0.0000000,0.0072891,0.0000000,0.0000000,0.0020023,0.0000000,0.0000000,0.0000000,0.0072891,0.0000000,0.0000000,0.0020023
32.2600670,1.0007000,,-0.9873440,-0.1585774,0.0000585,0.0022479,-0.0024998,-0.0021580,-0.0039076,,,,1.1545172,-7.1700058,-21.3562450,0.0000000,0.0000000,0.0000000,0.0200140,0.0530147,0.0000000,0.0000000,0.0073292,0.0000000,0.0000000,0.0000000,0.0530147,0.0000000,0.0000000,0.0073292,0.0000000,0.0000000,0.0000000,0.0530147,0.0000000,0.0000000,0.0073292,0.0073292,0.0000000,0.0000000,0.0020078,0.0000000,0.0000000,0.0000000,0.0073292,0.0000000,0.0000000,0.0020078,0.0000000,0.0000000,0.0000000,0.0073292,0.0000000,0.0000000,0.0020078
32.2748340,,1.0200000,-0.9873440,-0.1585774,0.0000585,0.0022479,,,,0.0000000,0.0000000,0.0000000,1.1545172,-7.1700058,-21.3562450,0.0000000,0.0000000,0.0000000,0.1020000,0.0515590,0.0000000,0.0000000,0.0071280,0.0000000,0.0000000,0.0000000,0.0515590,0.0000000,0.0000000,0.0071280,0.0000000,0.0000000,0.0000000,0.0515590,0.0000000,0.0000000,0.0071280,0.0071280,0.0000000,0.0000000,0.0019800,0.0000000,0.0000000,0.0000000,0.0071280,0.0000000,0.0000000,0.0019800,0.0000000,0.0000000,0.0000000,0.0071280,0.0000000,0.0000000,0.0019800
32.2884570,0.9995500,,-0.9873440,-0.1585775,0.0000495,0.0022508,0.0011228,0.0033537,-0.0061042,,,,1.1545172,-7.1700058,-21.3562450,0.0000000,0.0000000,0.0000000,0.0199910,0.0518440,0.0000000,0.0000000,0.0071676,0.0000000,0.0000000,0.0000000,0.0518440,0.0000000,0.0000000,0.0071676,0.0000000,0.0000000,0.0000000,0.0518440,0.0000000,0.0000000,0.0071676,0.0071676,0.0000000,0.0000000,0.0019855,0.0000000,0.0000000,0.0000000,0.0071676,0.0000000,0.0000000,0.0019855,0.0000000,0.0000000,0.0000000,0.0071676,0.0000000,0.0000000,0.0019855
32.3018060,1.0997500,,-0.9873440,-0.1585775,0.0000516,0.0022415,0.0009963,0.0087722,-0.0076908,,,,1.1545172,-7.1700058,-21.3562450,0.0000000,0.0000000,0.0000000,0.0219950,0.0521593,0.0000000,0.0000000,0.0072114,0.0000000,0.0000000,0.0000000,0.0521593,0.0000000,0.0000000,0.0072114,0.0000000,0.0000000,0.0000000,0.0521593,0.0000000,0.0000000,0.0072114,0.0072114,0.0000000,0.0000000,0.0019915,0.0000000,0.0000000,0.0000000,0.0072114,0.0000000,0.0000000,0.0019915,0.0000000,0.0000000,0.0000000,0.0072114,0.0000000,0.0000000,0.0019915
32.3219950,1.0001501,,-0.9873440,-0.1585775,0.0000284,0.0022396,0.0016197,0.0065986,-0.0082399,,,,1.1545172,-7.1700058,-21.3562450,0.0000000,0.0000000,0.0000000,0.0200030,0.0524478,0.0000000,0.0000000,0.0072513,0.0000000,0.0000000,0.0000000,0.0524478,0.0000000,0.0000000,0.0072513,0.0000000,0.0000000,0.0000000,0.0524478,0.0000000,0.0000000,0.0072513,0.0072513,0.0000000,0.0000000,0.0019970,0.0000000,0.0000000,0.0000000,0.0072513,0.0000000,0.0000000,0.0019970,0.0000000,0.0000000,0.0000000,0.0072513,0.0000000,0.0000000,0.0019970
32.3421440,0.9998500,,-0.9873440,-0.1585775,0.0000218,0.0022332,0.0026714,0.0072132,0.0010070,,,,1.1545172,-7.1700058,-21.3562450,0.0000000,0.0000000,0.0000000,0.0199970,0.0527378,0.0000000,0.0000000,0.0072912,0.0000000,0.0000000,0.0000000,0.0527378,0.0000000,0.0000000,0.0072912,0.0000000,0.0000000,0.0000000,0.0527378,0.0000000,0.0000000,0.0072912,0.0072912,0.0000000,0.0000000,0.0020025,0.0000000,0.0000000,0.0000000,0.0072912,0.0000000,0.0000000,0.0020025,0.0000000,0.0000000,0.0000000,0.0072912,0.0000000,0.0000000,0.0020025
32.3619560,1.0000000,,-0.9873440,-0.1585776,0.0000190,0.0022366,0.0029531,0.0092447,-0.0016938,,,,1.1545172,-7.1700058,-21.3562450,0.0000000,0.0000000,0.0000000,0.0200000,0.0530294,0.0000000,0.0000000,0.0073314,0.0000000,0.0000000,0.0000000,0.0530294,0.0000000,0.0000000,0.0073314,0.0000000,0.0000000,0.0000000,0.0530294,0.0000000,0.0000000,0.0073314,0.0073314,0.0000000,0.0000000,0.0020080,0.0000000,0.0000000,0.0000000,0.0073314,0.0000000,0.0000000,0.0020080,0.0000000,0.0000000,0.0000000,0.0073314,0.0000000,0.0000000,0.0020080
32.3779000,,1.0199900,-0.9873440,-0.1585776,0.0000190,0.0022366,,,,0.0000000,0.0000000,0.0000000,1.1545172,-7.1700058,-21.3562450,0.0000000,0.0000000,0.0000000,0.1019990,0.0515730,0.0000000,0.0000000,0.0071300,0.0000000,0.0000000,0.0000000,0.0515730,0.0000000,0.0000000,0.0071300,0.0000000,0.0000000,0.0000000,0.0515730,0.0000000,0.0000000,0.0071300,0.0071300,0.0000000,0.0000000,0.0019802,0.0000000,0.0000000,0.0000000,0.0071300,0.0000000,0.0000000,0.0019802,0.0000000,0.0000000,0.0000000,0.0071300,0.0000000,0.0000000,0.0019802
32.3913490,1.0004500,,-0.9873440,-0.1585776,0.0000081,0.0022359,0.0045436,0.0056142,0.0025711,,,,1.1545172,-7.1700058,-21.3562450,0.0000000,0.0000000,0.0000000,0.0200090,0.0518583,0.0000000,0.0000000,0.0071697,0.0000000,0.0000000,0.0000000,0.0518583,0.0000000,0.0000000,0.0071697,0.0000000,0.0000000,0.0000000,0.0518583,0.0000000,0.0000000,0.0071697,0.0071697,0.0000000,0.0000000,0.0019857,0.0000000,0.0000000,0.0000000,0.0071697,0.0000000,0.0000000,0.0019857,0.0000000,0.0000000,0.0000000,0.0071697,0.0000000,0.0000000,0.0019857
32.4046310,1.1496000,,-0.9873440,-0.1585776,0.0000054,0.0022502,0.0077802,-0.0008092,0.0000648,,,,1.1545172,-7.1700058,-21.3562450,0.0000000,0.0000000,0.0000000,0.0229920,0.0521880,0.0000000,0.0000000,0.0072154,0.0000000,0.0000000,0.0000000,0.0521880,0.0000000,0.0000000,0.0072154,0.0000000,0.0000000,0.0000000,0.0521880,0.0000000,0.0000000,0.0072154,0.0072154,0.0000000,0.0000000,0.0019920,0.0000000,0.0000000,0.0000000,0.0072154,0.0000000,0.0000000,0.0019920,0.0000000,0.0000000,0.0000000,0.0072154,0.0000000,0.0000000,0.0019920
32.4259590,1.0500000,,-0.9873440,-0.1585776,-0.0000050,0.0022226,0.0042639,0.0017621,0.0039387,,,,1.1545172,-7.1700058,-21.3562450,0.0000000,0.0000000,0.0000000,0.0210000,0.0524910,0.0000000,0.0000000,0.0072573,0.0000000,0.0000000,0.0000000,0.0524910,0.0000000,0.0000000,0.0072573,0.0000000,0.0000000,0.0000000,0.0524910,0.0000000,0.0000000,0.0072573,0.0072573,0.0000000,0.0000000,0.0019977,0.0000000,0.0000000,0.0000000,0.0072573,0.0000000,0.0000000,0.0019977,0.0000000,0.0000000,0.0000000,0.0072573,0.0000000,0.0000000,0.0019977
32.4459300,1.0002501,,-0.9873440,-0.1585777,-0.0000230,0.0022202,0.0088230,-0.0047418,0.0014811,,,,1.1545172,-7.1700058,-21.3562450,0.0000000,0.0000000,0.0000000,0.0200050,0.0527814,0.0000000,0.0000000,0.0072973,0.0000000,0.0000000,0.0000000,0.0527814,0.0000000,0.0000000,0.0072973,0.0000000,0.0000000,0.0000000,0.0527814,0.0000000,0.0000000,0.0072973,0.0072973,0.0000000,0.0000000,0.0020032,0.0000000,0.0000000,0.0000000,0.0072973,0.0000000,0.0000000,0.0020032,0.0000000,0.0000000,0.0000000,0.0072973,0.0000000,0.0000000,0.0020032
32.4668230,1.0497501,,-0.9873440,-0.1585777,-0.0000250,0.0022293,0.0062273,-0.0062619,0.0007405,,,,1.1545172,-7.1700058,-21.3562450,0.0000000,0.0000000,0.0000000,0.0209950,0.0530878,0.0000000,0.0000000,0.0073394,0.0000000,0.0000000,0.0000000,0.0530878,0.0000000,0.0000000,0.0073394,0.0000000,0.0000000,0.0000000,0.0530878,0.0000000,0.0000000,0.0073394,0.0073394,0.0000000,0.0000000,0.0020090,0.0000000,0.0000000,0.0000000,0.0073394,0.0000000,0.0000000,0.0020090,0.0000000,0.0000000,0.0000000,0.0073394,0.0000000,0.0000000,0.0020090
32.4830350,,1.0199900,-0.9873440,-0.1585777,-0.0000250,0.0022293,,,,0.0000000,0.0000000,0.0000000,1.1545172,-7.1700058,-21.3562450,0.0000000,0.0000000,0.0000000,0.1019990,0.0516282,0.0000000,0.0000000,0.0071376,0.0000000,0.0000000,0.0000000,0.0516282,0.0000000,0.0000000,0.0071376,0.0000000,0.0000000,0.0000000,0.0516282,0.0000000,0.0000000,0.0071376,0.0071376,0.0000000,0.0000000,0.0019811,0.0000000,0.0000000,0.0000000,0.0071376,0.0000000,0.0000000,0.0019811,0.0000000,0.0000000,0.0000000,0.0071376,0.0000000,0.0000000,0.0019811
32.4966530,1.1001000,,-0.9873440,-0.1585777,-0.0000429,0.0022318,-0.0004722,-0.0026427,0.0020792,,,,1.1545172,-7.1700058,-21.3562450,0.0000000,0.0000000,0.0000000,0.0220020,0.0519422,0.0000000,0.0000000,0.0071813,0.0000000,0.0000000,0.0000000,0.0519422,0.0000000,0.0000000,0.0071813,0.0000000,0.0000000,0.0000000,0.0519422,0.0000000,0.0000000,0.0071813,0.0071813,0.0000000,0.0000000,0.0019871,0.0000000,0.0000000,0.0000000,0.0071813,0.0000000,0.0000000,0.0019871,0.0000000,0.0000000,0.0000000,0.0071813,0.0000000,0.0000000,0.0019871
32.5099440,1.0498501,,-0.9873440,-0.1585777,-0.0000599,0.0022136,0.0032505,0.0015702,-0.0035990,,,,1.1545172,-7.1700058,-21.3562450,0.0000000,0.0000000,0.0000000,0.0209970,0.0522438,0.0000000,0.0000000,0.0072230,0.0000000,0.0000000,0.0000000,0.0522438,0.0000000,0.0000000,0.0072230,0.0000000,0.0000000,0.0000000,0.0522438,0.0000000,0.0000000,0.0072230,0.0072230,0.0000000,0.0000000,0.0019929,0.0000000,0.0000000,0.0000000,0.0072230,0.0000000,0.0000000,0.0019929,0.0000000,0.0000000,0.0000000,0.0072230,0.0000000,0.0000000,0.0019929
32.5310190,1.0506001,,-0.9873440,-0.1585777,-0.0000474,0.0022034,0.0019762,0.0005104,-0.0052175,,,,1.1545172,-7.1700058,-21.3562450,0.0000000,0.0000000,0.0000000,0.0210120,0.0525473,0.0000000,0.0000000,0.0072650,0.0000000,0.0000000,0.0000000,0.0525473,0.0000000,0.0000000,0.0072650,0.0000000,0.0000000,0.0000000,0.0525473,0.0000000,0.0000000,0.0072650,0.0072650,0.0000000,0.0000000,0.0019986,0.0000000,0.0000000,0.0000000,0.0072650,0.0000000,0.0000000,0.0019986,0.0000000,0.0000000,0.0000000,0.0072650,0.0000000,0.0000000,0.0019986
32.5509330,0.9999500,,-0.9873440,-0.1585777,-0.0000394,0.0022042,0.0040322,-0.0002559,-0.0092005,,,,1.1545172,-7.1700058,-21.3562450,0.0000000,0.0000000,0.0000000,0.0199990,0.0528379,0.0000000,0.0000000,0.0073050,0.0000000,0.0000000,0.0000000,0.0528379,0.0000000,0.0000000,0.0073050,0.0000000,0.0000000,0.0000000,0.0528379,0.0000000,0.0000000,0.0073050,0.0073050,0.0000000,0.0000000,0.0020041,0.0000000,0.0000000,0.0000000,0.0073050,0.0000000,0.0000000,0.0020041,0.0000000,0.0000000,0.0000000,0.0073050,0.0000000,0.0000000,0.0020041
32.5739220,,1.0100100,-0.9873440,-0.1585778,-0.0000612,0.0022193,,,,0.0000000,0.0000000,0.0000000,1.1545172,-7.1700058,-21.3562450,0.0000000,0.0000000,0.0000000,0.1010010,0.0513918,0.0000000,0.0000000,0.0071051,0.0000000,0.0000000,0.0000000,0.0513918,0.0000000,0.0000000,0.0071051,0.0000000,0.0000000,0.0000000,0.0513918,0.0000000,0.0000000,0.0071051,0.0071051,0.0000000,0.0000000,0.0019765,0.0000000,0.0000000,0.0000000,0.0071051,0.0000000,0.0000000,0.0019765,0.0000000,0.0000000,0.0000000,0.0071051,0.0000000,0.0000000,0.0019765
32.5878320,1.0999500,,-0.9873440,-0.1585778,-0.0000612,0.0022193,0.0069523,0.0025576,-0.0038678,,,,1.1545172,-7.1700058,-21.3562450,0.0000000,0.0000000,0.0000000,0.0219990,0.0517044,0.0000000,0.0000000,0.0071486,0.0000000,0.0000000,0.0000000,0.0517044,0.0000000,0.0000000,0.0071486,0.0000000,0.0000000,0.0000000,0.0517044,0.0000000,0.0000000,0.0071486,0.0071486,0.0000000,0.0000000,0.0019825,0.0000000,0.0000000,0.0000000,0.0071486,0.0000000,0.0000000,0.0019825,0.0000000,0.0000000,0.0000000,0.0071486,0.0000000,0.0000000,0.0019825
32.6004430,1.3995000,,-0.9873440,-0.1585778,-0.0000750,0.0022274,0.0059710,0.0081147,-0.0051078,,,,1.1545172,-7.1700058,-21.3562450,0.0000000,0.0000000,0.0000000,0.0279900,0.0521046,0.0000000,0.0000000,0.0072042,0.0000000,0.0000000,0.0000000,0.0521046,0.0000000,0.0000000,0.0072042,0.0000000,0.0000000,0.0000000,0.0521046,0.0000000,0.0000000,0.0072042,0.0072042,0.0000000,0.0000000,0.0019902,0.0000000,0.0000000,0.0000000,0.0072042,0.0000000,0.0000000,0.0019902,0.0000000,0.0000000,0.0000000,0.0072042,0.0000000,0.0000000,0.0019902
32.6218400,1.0501500,,-0.9873440,-0.1585779,-0.0000945,0.0022076,-0.0033316,0.0015626,-0.0008449,,,,1.1545172,-7.1700058,-21.3562450,0.0000000,0.0000000,0.0000000,0.0210030,0.0524072,0.0000000,0.0000000,0.0072460,0.0000000,0.0000000,0.0000000,0.0524072,0.0000000,0.0000000,0.0072460,0.0000000,0.0000000,0.0000000,0.0524072,0.0000000,0.0000000,0.0072460,0.0072460,0.0000000,0.0000000,0.0019960,0.0000000,0.0000000,0.0000000,0.0072460,0.0000000,0.0000000,0.0019960,0.0000000,0.0000000,0.0000000,0.0072460,0.0000000,0.0000000,0.0019960
32.6419130,0.9999000,,-0.9873440,-0.1585779,-0.0000901,0.0021882,-0.0030696,0.0065720,-0.0048170,,,,1.1545172,-7.1700058,-21.3562450,0.0000000,0.0000000,0.0000000,0.0199980,0.0526970,0.0000000,0.0000000,0.0072860,0.0000000,0.0000000,0.0000000,0.0526970,0.0000000,0.0000000,0.0072860,0.0000000,0.0000000,0.0000000,0.0526970,0.0000000,0.0000000,0.0072860,0.0072860,0.0000000,0.0000000,0.0020015,0.0000000,0.0000000,0.0000000,0.0072860,0.0000000,0.0000000,0.0020015,0.0000000,0.0000000,0.0000000,0.0072860,0.0000000,0.0000000,0.0020015
32.6620840,1.0001000,,-0.9873440,-0.1585779,-0.0001035,0.0021710,-0.0097975,0.0019814,-0.0043616,,,,1.1545172,-7.1700058,-21.3562450,0.0000000,0.0000000,0.0000000,0.0200020,0.0529885,0.0000000,0.0000000,0.0073261,0.0000000,0.0000000,0.0000000,0.0529885,0.0000000,0.0000000,0.0073261,0.0000000,0.0000000,0.0000000,0.0529885,0.0000000,0.0000000,0.0073261,0.0073261,0.0000000,0.0000000,0.0020070,0.0000000,0.0000000,0.0000000,0.0073261,0.0000000,0.0000000,0.0020070,0.0000000,0.0000000,0.0000000,0.0073261,0.0000000,0.0000000,0.0020070
32.6769560,,0.9999900,-0.9873440,-0.1585779,-0.0001035,0.0021710,,,,0.0000000,0.0000000,0.0000000,1.1545172,-7.1700058,-21.3562450,0.0000000,0.0000000,0.0000000,0.0999990,0.0515342,0.0000000,0.0000000,0.0071250,0.0000000,0.0000000,0.0000000,0.0515342,0.0000000,0.0000000,0.0071250,0.0000000,0.0000000,0.0000000,0.0515342,0.0000000,0.0000000,0.0071250,0.0071250,0.0000000,0.0000000,0.0019792,0.0000000,0.0000000,0.0000000,0.0071250,0.0000000,0.0000000,0.0019792,0.0000000,0.0000000,0.0000000,0.0071250,0.0000000,0.0000000,0.0019792
32.6907520,0.9998500,,-0.9873441,-0.1585779,-0.0001235,0.0021495,-0.0048835,-0.0025417,-0.0007160,,,,1.1545172,-7.1700058,-21.3562450,0.0000000,0.0000000,0.0000000,0.0199970,0.0518192,0.0000000,0.0000000,0.0071647,0.0000000,0.0000000,0.0000000,0.0518192,0.0000000,0.0000000,0.0071647,0.0000000,0.0000000,0.0000000,0.0518192,0.0000000,0.0000000,0.0071647,0.0071647,0.0000000,0.0000000,0.0019846,0.0000000,0.0000000,0.0000000,0.0071647,0.0000000,0.0000000,0.0019846,0.0000000,0.0000000,0.0000000,0.0071647,0.0000000,0.0000000,0.0019846
32.7038120,1.1004500,,-0.9873441,-0.1585780,-0.0001520,0.0021050,-0.0034336,-0.0004850,-0.0020670,,,,1.1545172,-7.1700058,-21.3562450,0.0000000,0.0000000,0.0000000,0.0220090,0.0521346,0.0000000,0.0000000,0.0072084,0.0000000,0.0000000,0.0000000,0.0521346,0.0000000,0.0000000,0.0072084,0.0000000,0.0000000,0.0000000,0.0521346,0.0000000,0.0000000,0.0072084,0.0072084,0.0000000,0.0000000,0.0019907,0.0000000,0.0000000,0.0000000,0.0072084,0.0000000,0.0000000,0.0019907,0.0000000,0.0000000,0.0000000,0.0072084,0.0000000,0.0000000,0.0019907
32.7237530,0.9998000,,-0.9873442,-0.1585781,-0.0001587,0.0020815,-0.0024492,0.0037171,-0.0000569,,,,1.1545172,-7.1700058,-21.3562450,0.0000000,0.0000000,0.0000000,0.0199960,0.0524228,0.0000000,0.0000000,0.0072483,0.0000000,0.0000000,0.0000000,0.0524228,0.0000000,0.0000000,0.0072483,0.0000000,0.0000000,0.0000000,0.0524228,0.0000000,0.0000000,0.0072483,0.0072483,0.0000000,0.0000000,0.0019962,0.0000000,0.0000000,0.0000000,0.0072483,0.0000000,0.0000000,0.0019962,0.0000000,0.0000000,0.0000000,0.0072483,0.0000000,0.0000000,0.0019962
32.7437080,0.9999000,,-0.9873443,-0.1585781,-0.0001669,0.0020487,-0.0014687,0.0116395,-0.0046671,,,,1.1545172,-7.1700058,-21.3562450,0.0000000,0.0000000,0.0000000,0.0199980,0.0527127,0.0000000,0.0000000,0.0072882,0.0000000,0.0000000,0.0000000,0.0527127,0.0000000,0.0000000,0.0072882,0.0000000,0.0000000,0.0000000,0.0527127,0.0000000,0.0000000,0.0072882,0.0072882,0.0000000,0.0000000,0.0020017,0.0000000,0.0000000,0.0000000,0.0072882,0.0000000,0.0000000,0.0020017,0.0000000,0.0000000,0.0000000,0.0072882,0.0000000,0.0000000,0.0020017
32.7646910,1.0500000,,-0.9873444,-0.1585781,-0.0001662,0.0020122,-0.0068226,0.0094589,-0.0040426,,,,1.1545172,-7.1700058,-21.3562450,0.0000000,0.0000000,0.0000000,0.0210000,0.0530189,0.0000000,0.0000000,0.0073303,0.0000000,0.0000000,0.0000000,0.0530189,0.0000000,0.0000000,0.0073303,0.0000000,0.0000000,0.0000000,0.0530189,0.0000000,0.0000000,0.0073303,0.0073303,0.0000000,0.0000000,0.0020074,0.0000000,0.0000000,0.0000000,0.0073303,0.0000000,0.0000000,0.0020074,0.0000000,0.0000000,0.0000000,0.0073303,0.0000000,0.0000000,0.0020074
32.7808660,,1.0000800,-0.9873444,-0.1585781,-0.0001662,0.0020122,,,,0.0000000,0.0000000,0.0000000,1.1545172,-7.1700058,-21.3562450,0.0000000,0.0000000,0.0000000,0.1000080,0.0515629,0.0000000,0.0000000,0.0071290,0.0000000,0.0000000,0.0000000,0.0515629,0.0000000,0.0000000,0.0071290,0.0000000,0.0000000,0.0000000,0.0515629,0.0000000,0.0000000,0.0071290,0.0071290,0.0000000,0.0000000,0.0019796,0.0000000,0.0000000,0.0000000,0.0071290,0.0000000,0.0000000,0.0019796,0.0000000,0.0000000,0.0000000,0.0071290,0.0000000,0.0000000,0.0019796
32.7944960,1.1000000,,-0.9873444,-0.1585781,-0.0001654,0.0019973,-0.0063257,0.0044701,0.0033498,,,,1.1545172,-7.1700058,-21.3562450,0.0000000,0.0000000,0.0000000,0.0220000,0.0518766,0.0000000,0.0000000,0.0071727,0.0000000,0.0000000,0.0000000,0.0518766,0.0000000,0.0000000,0.0071727,0.0000000,0.0000000,0.0000000,0.0518766,0.0000000,0.0000000,0.0071727,0.0071727,0.0000000,0.0000000,0.0019856,0.0000000,0.0000000,0.0000000,0.0071727,0.0000000,0.0000000,0.0019856,0.0000000,0.0000000,0.0000000,0.0071727,0.0000000,0.0000000,0.0019856
32.8080670,1.0503500,,-0.9873444,-0.1585781,-0.0001573,0.0019862,-0.0065503,-0.0012058,0.0019190,,,,1.1545172,-7.1700058,-21.3562450,0.0000000,0.0000000,0.0000000,0.0210070,0.0521780,0.0000000,0.0000000,0.0072144,0.0000000,0.0000000,0.0000000,0.0521780,0.0000000,0.0000000,0.0072144,0.0000000,0.0000000,0.0000000,0.0521780,0.0000000,0.0000000,0.0072144,0.0072144,0.0000000,0.0000000,0.0019914,0.0000000,0.0000000,0.0000000,0.0072144,0.0000000,0.0000000,0.0019914,0.0000000,0.0000000,0.0000000,0.0072144,0.0000000,0.0000000,0.0019914
32.8277250,0.9999000,,-0.9873444,-0.1585781,-0.0001430,0.0019791,-0.0022452,-0.0037996,0.0031568,,,,1.1545172,-7.1700058,-21.3562450,0.0000000,0.0000000,0.0000000,0.0199980,0.0524665,0.0000000,0.0000000,0.0072543,0.0000000,0.0000000,0.0000000,0.0524665,0.0000000,0.0000000,0.0072543,0.0000000,0.0000000,0.0000000,0.0524665,0.0000000,0.0000000,0.0072543,0.0072543,0.0000000,0.0000000,0.0019969,0.0000000,0.0000000,0.0000000,0.0072543,0.0000000,0.0000000,0.0019969,0.0000000,0.0000000,0.0000000,0.0072543,0.0000000,0.0000000,0.0019969
32.8488320,1.0497000,,-0.9873444,-0.1585781,-0.0001310,0.0019935,-0.0018016,-0.0016404,-0.0028161,,,,1.1545172,-7.1700058,-21.3562450,0.0000000,0.0000000,0.0000000,0.0209940,0.0527711,0.0000000,0.0000000,0.0072963,0.0000000,0.0000000,0.0000000,0.0527711,0.0000000,0.0000000,0.0072963,0.0000000,0.0000000,0.0000000,0.0527711,0.0000000,0.0000000,0.0072963,0.0072963,0.0000000,0.0000000,0.0020026,0.0000000,0.0000000,0.0000000,0.0072963,0.0000000,0.0000000,0.0020026,0.0000000,0.0000000,0.0000000,0.0072963,0.0000000,0.0000000,0.0020026
32.8698490,1.0500000,,-0.9873444,-0.1585780,-0.0001162,0.0020039,-0.0022894,0.0001792,0.0032306,,,,1.1545172,-7.1700058,-21.3562450,0.0000000,0.0000000,0.0000000,0.0210000,0.0530776,0.0000000,0.0000000,0.0073384,0.0000000,0.0000000,0.0000000,0.0530776,0.0000000,0.0000000,0.0073384,0.0000000,0.0000000,0.0000000,0.0530776,0.0000000,0.0000000,0.0073384,0.0073384,0.0000000,0.0000000,0.0020084,0.0000000,0.0000000,0.0000000,0.0073384,0.0000000,0.0000000,0.0020084,0.0000000,0.0000000,0.0000000,0.0073384,0.0000000,0.0000000,0.0020084
32.8858730,,0.9999200,-0.9873444,-0.1585780,-0.0001162,0.0020039,,,,0.0000000,0.0000000,0.0000000,1.1545172,-7.1700058,-21.3562450,0.0000000,0.0000000,0.0000000,0.0999920,0.0516185,0.0000000,0.0000000,0.0071367,0.0000000,0.0000000,0.0000000,0.0516185,0.0000000,0.0000000,0.0071367,0.0000000,0.0000000,0.0000000,0.0516185,0.0000000,0.0000000,0.0071367,0.0071367,0.0000000,0.0000000,0.0019805,0.0000000,0.0000000,0.0000000,0.0071367,0.0000000,0.0000000,0.0019805,0.0000000,0.0000000,0.0000000,0.0071367,0.0000000,0.0000000,0.0019805
32.8995560,0.9999000,,-0.9873444,-0.1585780,-0.0000974,0.0020080,0.0006635,-0.0042820,0.0064981,,,,1.1545172,-7.1700058,-21.3562450,0.0000000,0.0000000,0.0000000,0.0199980,0.0519039,0.0000000,0.0000000,0.0071763,0.0000000,0.0000000,0.0000000,0.0519039,0.0000000,0.0000000,0.0071763,0.0000000,0.0000000,0.0000000,0.0519039,0.0000000,0.0000000,0.0071763,0.0071763,0.0000000,0.0000000,0.0019860,0.0000000,0.0000000,0.0000000,0.0071763,0.0000000,0.0000000,0.0019860,0.0000000,0.0000000,0.0000000,0.0071763,0.0000000,0.0000000,0.0019860
32.9130090,1.1505001,,-0.9873444,-0.1585779,-0.0000708,0.0020082,-0.0007593,0.0025205,0.0069112,,,,1.1545172,-7.1700058,-21.3562450,0.0000000,0.0000000,0.0000000,0.0230100,0.0522342,0.0000000,0.0000000,0.0072221,0.0000000,0.0000000,0.0000000,0.0522342,0.0000000,0.0000000,0.0072221,0.0000000,0.0000000,0.0000000,0.0522342,0.0000000,0.0000000,0.0072221,0.0072221,0.0000000,0.0000000,0.0019923,0.0000000,0.0000000,0.0000000,0.0072221,0.0000000,0.0000000,0.0019923,0.0000000,0.0000000,0.0000000,0.0072221,0.0000000,0.0000000,0.0019923
32.9327360,1.0000501,,-0.9873444,-0.1585779,-0.0000437,0.0020119,-0.0026684,0.0042281,0.0083384,,,,1.1545172,-7.1700058,-21.3562450,0.0000000,0.0000000,0.0000000,0.0200010,0.0525231,0.0000000,0.0000000,0.0072620,0.0000000,0.0000000,0.0000000,0.0525231,0.0000000,0.0000000,0.0072620,0.0000000,0.0000000,0.0000000,0.0525231,0.0000000,0.0000000,0.0072620,0.0072620,0.0000000,0.0000000,0.0019978,0.0000000,0.0000000,0.0000000,0.0072620,0.0000000,0.0000000,0.0019978,0.0000000,0.0000000,0.0000000,0.0072620,0.0000000,0.0000000,0.0019978
32.9538240,1.0495499,,-0.9873444,-0.1585779,-0.0000288,0.0020099,-0.0060568,0.0043418,0.0022161,,,,1.1545172,-7.1700058,-21.3562450,0.0000000,0.0000000,0.0000000,0.0209910,0.0528279,0.0000000,0.0000000,0.0073040,0.0000000,0.0000000,0.0000000,0.0528279,0.0000000,0.0000000,0.0073040,0.0000000,0.0000000,0.0000000,0.0528279,0.0000000,0.0000000,0.0073040,0.0073040,0.0000000,0.0000000,0.0020036,0.0000000,0.0000000,0.0000000,0.0073040,0.0000000,0.0000000,0.0020036,0.0000000,0.0000000,0.0000000,0.0073040,0.0000000,0.0000000,0.0020036
32.9748380,,1.0100000,-0.9873444,-0.1585779,-0.0000272,0.0019992,,,,0.0000000,0.0000000,0.0000000,1.1545172,-7.1700058,-21.3562450,0.0000000,0.0000000,0.0000000,0.1010000,0.0513824,0.0000000,0.0000000,0.0071041,0.0000000,0.0000000,0.0000000,0.0513824,0.0000000,0.0000000,0.0071041,0.0000000,0.0000000,0.0000000,0.0513824,0.0000000,0.0000000,0.0071041,0.0071041,0.0000000,0.0000000,0.0019759,0.0000000,0.0000000,0.0000000,0.0071041,0.0000000,0.0000000,0.0019759,0.0000000,0.0000000,0.0000000,0.0071041,0.0000000,0.0000000,0.0019759
32.9883970,1.1000000,,-0.9873444,-0.1585779,-0.0000272,0.0019992,0.0000539,0.0038875,-0.0076810,,,,1.1545172,-7.1700058,-21.3562450,0.0000000,0.0000000,0.0000000,0.0220000,0.0516949,0.0000000,0.0000000,0.0071476,0.0000000,0.0000000,0.0000000,0.0516949,0.0000000,0.0000000,0.0071476,0.0000000,0.0000000,0.0000000,0.0516949,0.0000000,0.0000000,0.0071476,0.0071476,0.0000000,0.0000000,0.0019820,0.0000000,0.0000000,0.0000000,0.0071476,0.0000000,0.0000000,0.0019820,0.0000000,0.0000000,0.0000000,0.0071476,0.0000000,0.0000000,0.0019820
33.0018400,1.2999001,,-0.9873444,-0.1585779,-0.0000548,0.0020016,0.0064661,0.0065977,-0.0035964,,,,1.1545172,-7.1700058,-21.3562450,0.0000000,0.0000000,0.0000000,0.0259980,0.0520666,0.0000000,0.0000000,0.0071992,0.0000000,0.0000000,0.0000000,0.0520666,0.0000000,0.0000000,0.0071992,0.0000000,0.0000000,0.0000000,0.0520666,0.0000000,0.0000000,0.0071992,0.0071992,0.0000000,0.0000000,0.0019891,0.0000000,0.0000000,0.0000000,0.0071992,0.0000000,0.0000000,0.0019891,0.0000000,0.0000000,0.0000000,0.0071992,0.0000000,0.0000000,0.0019891
33.0221630,1.0000501,,-0.9873444,-0.1585780,-0.0000834,0.0020023,0.0079328,0.0091659,0.0028405,,,,1.1545172,-7.1700058,-21.3562450,0.0000000,0.0000000,0.0000000,0.0200010,0.0523546,0.0000000,0.0000000,0.0072391,0.0000000,0.0000000,0.0000000,0.0523546,0.0000000,0.0000000,0.0072391,0.0000000,0.0000000,0.0000000,0.0523546,0.0000000,0.0000000,0.0072391,0.0072391,0.0000000,0.0000000,0.0019946,0.0000000,0.0000000,0.0000000,0.0072391,0.0000000,0.0000000,0.0019946,0.0000000,0.0000000,0.0000000,0.0072391,0.0000000,0.0000000,0.0019946
33.0417280,0.9999500,,-0.9873444,-0.1585780,-0.0000951,0.0019952,0.0045233,0.0026298,0.0021527,,,,1.1545172,-7.1700058,-21.3562450,0.0000000,0.0000000,0.0000000,0.0199990,0.0526441,0.0000000,0.0000000,0.0072790,0.0000000,0.0000000,0.0000000,0.0526441,0.0000000,0.0000000,0.0072790,0.0000000,0.0000000,0.0000000,0.0526441,0.0000000,0.0000000,0.0072790,0.0072790,0.0000000,0.0000000,0.0020001,0.0000000,0.0000000,0.0000000,0.0072790,0.0000000,0.0000000,0.0020001,0.0000000,0.0000000,0.0000000,0.0072790,0.0000000,0.0000000,0.0020001
33.0618560,1.0000501,,-0.9873444,-0.1585780,-0.0001074,0.0020002,0.0093952,0.0042598,0.0035177,,,,1.1545172,-7.1700058,-21.3562450,0.0000000,0.0000000,0.0000000,0.0200010,0.0529353,0.0000000,0.0000000,0.0073191,0.0000000,0.0000000,0.0000000,0.0529353,0.0000000,0.0000000,0.0073191,0.0000000,0.0000000,0.0000000,0.0529353,0.0000000,0.0000000,0.0073191,0.0073191,0.0000000,0.0000000,0.0020056,0.0000000,0.0000000,0.0000000,0.0073191,0.0000000,0.0000000,0.0020056,0.0000000,0.0000000,0.0000000,0.0073191,0.0000000,0.0000000,0.0020056
33.0778700,,1.0001400,-0.9873444,-0.1585780,-0.0001074,0.0020002,,,,0.0000000,0.0000000,0.0000000,1.1545172,-7.1700058,-21.3562450,0.0000000,0.0000000,0.0000000,0.1000140,0.0514839,0.0000000,0.0000000,0.0071184,0.0000000,0.0000000,0.0000000,0.0514839,0.0000000,0.0000000,0.0071184,0.0000000,0.0000000,0.0000000,0.0514839,0.0000000,0.0000000,0.0071184,0.0071184,0.0000000,0.0000000,0.0019778,0.0000000,0.0000000,0.0000000,0.0071184,0.0000000,0.0000000,0.0019778,0.0000000,0.0000000,0.0000000,0.0071184,0.0000000,0.0000000,0.0019778
33.0914790,1.0007499,,-0.9873444,-0.1585780,-0.0000923,0.0020051,0.0011346,0.0023970,-0.0009267,,,,1.1545172,-7.1700058,-21.3562450,0.0000000,0.0000000,0.0000000,0.0200150,0.0517689,0.0000000,0.0000000,0.0071581,0.0000000,0.0000000,0.0000000,0.0517689,0.0000000,0.0000000,0.0071581,0.0000000,0.0000000,0.0000000,0.0517689,0.0000000,0.0000000,0.0071581,0.0071581,0.0000000,0.0000000,0.0019833,0.0000000,0.0000000,0.0000000,0.0071581,0.0000000,0.0000000,0.0019833,0.0000000,0.0000000,0.0000000,0.0071581,0.0000000,0.0000000,0.0019833
33.1047370,1.1492500,,-0.9873444,-0.1585780,-0.0000813,0.0020078,-0.0054294,0.0004889,0.0012456,,,,1.1545172,-7.1700058,-21.3562450,0.0000000,0.0000000,0.0000000,0.0229850,0.0520979,0.0000000,0.0000000,0.0072037,0.0000000,0.0000000,0.0000000,0.0520979,0.0000000,0.0000000,0.0072037,0.0000000,0.0000000,0.0000000,0.0520979,0.0000000,0.0000000,0.0072037,0.0072037,0.0000000,0.0000000,0.0019896,0.0000000,0.0000000,0.0000000,0.0072037,0.0000000,0.0000000,0.0019896,0.0000000,0.0000000,0.0000000,0.0072037,0.0000000,0.0000000,0.0019896
33.1271910,1.0499500,,-0.9873444,-0.1585780,-0.0000914,0.0020182,0.0002837,-0.0028912,-0.0027951,,,,1.1545172,-7.1700058,-21.3562450,0.0000000,0.0000000,0.0000000,0.0209990,0.0524005,0.0000000,0.0000000,0.0072455,0.0000000,0.0000000,0.0000000,0.0524005,0.0000000,0.0000000,0.0072455,0.0000000,0.0000000,0.0000000,0.0524005,0.0000000,0.0000000,0.0072455,0.0072455,0.0000000,0.0000000,0.0019954,0.0000000,0.0000000,0.0000000,0.0072455,0.0000000,0.0000000,0.0019954,0.0000000,0.0000000,0.0000000,0.0072455,0.0000000,0.0000000,0.0019954
33.1458020,1.0000000,,-0.9873444,-0.1585780,-0.0000832,0.0020169,0.0009734,-0.0036124,-0.0053038,,,,1.1545172,-7.1700058,-21.3562450,0.0000000,0.0000000,0.0000000,0.0200000,0.0526903,0.0000000,0.0000000,0.0072855,0.0000000,0.0000000,0.0000000,0.0526903,0.0000000,0.0000000,0.0072855,0.0000000,0.0000000,0.0000000,0.0526903,0.0000000,0.0000000,0.0072855,0.0072855,0.0000000,0.0000000,0.0020009,0.0000000,0.0000000,0.0000000,0.0072855,0.0000000,0.0000000,0.0020009,0.0000000,0.0000000,0.0000000,0.0072855,0.0000000,0.0000000,0.0020009
33.1671990,1.0001501,,-0.9873444,-0.1585780,-0.0000779,0.0019917,0.0030349,0.0076924,-0.0046050,,,,1.1545172,-7.1700058,-21.3562450,0.0000000,0.0000000,0.0000000,0.0200030,0.0529818,0.0000000,0.0000000,0.0073256,0.0000000,0.0000000,0.0000000,0.0529818,0.0000000,0.0000000,0.0073256,0.0000000,0.0000000,0.0000000,0.0529818,0.0000000,0.0000000,0.0073256,0.0073256,0.0000000,0.0000000,0.0020064,0.0000000,0.0000000,0.0000000,0.0073256,0.0000000,0.0000000,0.0020064,0.0000000,0.0000000,0.0000000,0.0073256,0.0000000,0.0000000,0.0020064
33.1830880,,1.0199300,-0.9873444,-0.1585780,-0.0000779,0.0019818,,,,0.0000000,0.0000000,0.0000000,1.1545172,-7.1700058,-21.3562450,0.0000000,0.0000000,0.0000000,0.1019930,0.0515279,0.0000000,0.0000000,0.0071246,0.0000000,0.0000000,0.0000000,0.0515279,0.0000000,0.0000000,0.0071246,0.0000000,0.0000000,0.0000000,0.0515279,0.0000000,0.0000000,0.0071246,0.0071246,0.0000000,0.0000000,0.0019786,0.0000000,0.0000000,0.0000000,0.0071246,0.0000000,0.0000000,0.0019786,0.0000000,0.0000000,0.0000000,0.0071246,0.0000000,0.0000000,0.0019786
33.1961590,1.0002000,,-0.9873445,-0.1585780,-0.0000803,0.0019818,0.0064995,-0.0037374,-0.0093826,,,,1.1545172,-7.1700058,-21.3562450,0.0000000,0.0000000,0.0000000,0.0200040,0.0518129,0.0000000,0.0000000,0.0071642,0.0000000,0.0000000,0.0000000,0.0518129,0.0000000,0.0000000,0.0071642,0.0000000,0.0000000,0.0000000,0.0518129,0.0000000,0.0000000,0.0071642,0.0071642,0.0000000,0.0000000,0.0019841,0.0000000,0.0000000,0.0000000,0.0071642,0.0000000,0.0000000,0.0019841,0.0000000,0.0000000,0.0000000,0.0071642,0.0000000,0.0000000,0.0019841
33.2108260,1.2496500,,-0.9873445,-0.1585780,-0.0000814,0.0019703,0.0035931,-0.0065379,-0.0046913,,,,1.1545172,-7.1700058,-21.3562450,0.0000000,0.0000000,0.0000000,0.0249930,0.0521710,0.0000000,0.0000000,0.0072138,0.0000000,0.0000000,0.0000000,0.0521710,0.0000000,0.0000000,0.0072138,0.0000000,0.0000000,0.0000000,0.0521710,0.0000000,0.0000000,0.0072138,0.0072138,0.0000000,0.0000000,0.0019909,0.0000000,0.0000000,0.0000000,0.0072138,0.0000000,0.0000000,0.0019909,0.0000000,0.0000000,0.0000000,0.0072138,0.0000000,0.0000000,0.0019909
33.2317280,1.0502001,,-0.9873445,-0.1585780,-0.0000628,0.0019682,-0.0007517,-0.0069463,-0.0084492,,,,1.1545172,-7.1700058,-21.3562450,0.0000000,0.0000000,0.0000000,0.0210040,0.0524740,0.0000000,0.0000000,0.0072557,0.0000000,0.0000000,0.0000000,0.0524740,0.0000000,0.0000000,0.0072557,0.0000000,0.0000000,0.0000000,0.0524740,0.0000000,0.0000000,0.0072557,0.0072557,0.0000000,0.0000000,0.0019967,0.0000000,0.0000000,0.0000000,0.0072557,0.0000000,0.0000000,0.0019967,0.0000000,0.0000000,0.0000000,0.0072557,0.0000000,0.0000000,0.0019967
33.2543160,1.0500000,,-0.9873445,-0.1585779,-0.0000398,0.0019800,-0.0038777,-0.0068759,-0.0081308,,,,1.1545172,-7.1700058,-21.3562450,0.0000000,0.0000000,0.0000000,0.0210000,0.0527788,0.0000000,0.0000000,0.0072977,0.0000000,0.0000000,0.0000000,0.0527788,0.0000000,0.0000000,0.0072977,0.0000000,0.0000000,0.0000000,0.0527788,0.0000000,0.0000000,0.0072977,0.0072977,0.0000000,0.0000000,0.0020024,0.0000000,0.0000000,0.0000000,0.0072977,0.0000000,0.0000000,0.0020024,0.0000000,0.0000000,0.0000000,0.0072977,0.0000000,0.0000000,0.0020024
33.2742060,1.0000000,,-0.9873445,-0.1585779,-0.0000265,0.0019907,-0.0027552,-0.0104951,-0.0082158,,,,1.1545172,-7.1700058,-21.3562450,0.0000000,0.0000000,0.0000000,0.0200000,0.0530707,0.0000000,0.0000000,0.0073378,0.0000000,0.0000000,0.0000000,0.0530707,0.0000000,0.0000000,0.0073378,0.0000000,0.0000000,0.0000000,0.0530707,0.0000000,0.0000000,0.0073378,0.0073378,0.0000000,0.0000000,0.0020079,0.0000000,0.0000000,0.0000000,0.0073378,0.0000000,0.0000000,0.0020079,0.0000000,0.0000000,0.0000000,0.0073378,0.0000000,0.0000000,0.0020079
33.2898210,,0.9999900,-0.9873445,-0.1585779,-0.0000265,0.0020012,,,,0.0000000,0.0000000,0.0000000,1.1545172,-7.1700058,-21.3562450,0.0000000,0.0000000,0.0000000,0.0999990,0.0516120,0.0000000,0.0000000,0.0071361,0.0000000,0.0000000,0.0000000,0.0516120,0.0000000,0.0000000,0.0071361,0.0000000,0.0000000,0.0000000,0.0516120,0.0000000,0.0000000,0.0071361,0.0071361,0.0000000,0.0000000,0.0019800,0.0000000,0.0000000,0.0000000,0.0071361,0.0000000,0.0000000,0.0019800,0.0000000,0.0000000,0.0000000,0.0071361,0.0000000,0.0000000,0.0019800
33.3034020,0.9999000,,-0.9873444,-0.1585779,-0.0000386,0.0020012,0.0019183,-0.0000901,-0.0011782,,,,1.1545172,-7.1700058,-21.3562450,0.0000000,0.0000000,0.0000000,0.0199980,0.0518974,0.0000000,0.0000000,0.0071758,0.0000000,0.0000000,0.0000000,0.0518974,0.0000000,0.0000000,0.0071758,0.0000000,0.0000000,0.0000000,0.0518974,0.0000000,0.0000000,0.0071758,0.0071758,0.0000000,0.0000000,0.0019855,0.0000000,0.0000000,0.0000000,0.0071758,0.0000000,0.0000000,0.0019855,0.0000000,0.0000000,0.0000000,0.0071758,0.0000000,0.0000000,0.0019855
33.3168680,1.1999000,,-0.9873445,-0.1585779,-0.0000035,0.0019928,-0.0037177,-0.0012505,-0.0018098,,,,1.1545172,-7.1700058,-21.3562450,0.0000000,0.0000000,0.0000000,0.0239980,0.0522418,0.0000000,0.0000000,0.0072235,0.0000000,0.0000000,0.0000000,0.0522418,0.0000000,0.0000000,0.0072235,0.0000000,0.0000000,0.0000000,0.0522418,0.0000000,0.0000000,0.0072235,0.0072235,0.0000000,0.0000000,0.0019921,0.0000000,0.0000000,0.0000000,0.0072235,0.0000000,0.0000000,0.0019921,0.0000000,0.0000000,0.0000000,0.0072235,0.0000000,0.0000000,0.0019921
33.3382290,1.0000501,,-0.9873445,-0.1585779,0.0000125,0.0019864,-0.0004321,0.0020679,0.0012924,,,,1.1545172,-7.1700058,-21.3562450,0.0000000,0.0000000,0.0000000,0.0200010,0.0525308,0.0000000,0.0000000,0.0072634,0.0000000,0.0000000,0.0000000,0.0525308,0.0000000,0.0000000,0.0072634,0.0000000,0.0000000,0.0000000,0.0525308,0.0000000,0.0000000,0.0072634,0.0072634,0.0000000,0.0000000,0.0019976,0.0000000,0.0000000,0.0000000,0.0072634,0.0000000,0.0000000,0.0019976,0.0000000,0.0000000,0.0000000,0.0072634,0.0000000,0.0000000,0.0019976
33.3568100,0.9999500,,-0.9873444,-0.1585778,0.0000334,0.0020176,-0.0012155,-0.0057180,0.0013786,,,,1.1545172,-7.1700058,-21.3562450,0.0000000,0.0000000,0.0000000,0.0199990,0.0528213,0.0000000,0.0000000,0.0073034,0.0000000,0.0000000,0.0000000,0.0528213,0.0000000,0.0000000,0.0073034,0.0000000,0.0000000,0.0000000,0.0528213,0.0000000,0.0000000,0.0073034,0.0073034,0.0000000,0.0000000,0.0020031,0.0000000,0.0000000,0.0000000,0.0073034,0.0000000,0.0000000,0.0020031,0.0000000,0.0000000,0.0000000,0.0073034,0.0000000,0.0000000,0.0020031
33.3780380,,1.0099300,-0.9873444,-0.1585778,0.0000495,0.0020583,,,,0.0000000,0.0000000,0.0000000,1.1545172,-7.1700058,-21.3562450,0.0000000,0.0000000,0.0000000,0.1009930,0.0513761,0.0000000,0.0000000,0.0071036,0.0000000,0.0000000,0.0000000,0.0513761,0.0000000,0.0000000,0.0071036,0.0000000,0.0000000,0.0000000,0.0513761,0.0000000,0.0000000,0.0071036,0.0071036,0.0000000,0.0000000,0.0019755,0.0000000,0.0000000,0.0000000,0.0071036,0.0000000,0.0000000,0.0019755,0.0000000,0.0000000,0.0000000,0.0071036,0.0000000,0.0000000,0.0019755
33.3915300,1.0003500,,-0.9873444,-0.1585778,0.0000495,0.0020583,-0.0020955,-0.0022334,-0.0012638,,,,1.1545172,-7.1700058,-21.3562450,0.0000000,0.0000000,0.0000000,0.0200070,0.0516603,0.0000000,0.0000000,0.0071431,0.0000000,0.0000000,0.0000000,0.0516603,0.0000000,0.0000000,0.0071431,0.0000000,0.0000000,0.0000000,0.0516603,0.0000000,0.0000000,0.0071431,0.0071431,0.0000000,0.0000000,0.0019810,0.0000000,0.0000000,0.0000000,0.0071431,0.0000000,0.0000000,0.0019810,0.0000000,0.0000000,0.0000000,0.0071431,0.0000000,0.0000000,0.0019810
33.4047780,1.3997000,,-0.9873443,-0.1585777,0.0000579,0.0020908,0.0023473,-0.0041303,0.0020536,,,,1.1545172,-7.1700058,-21.3562450,0.0000000,0.0000000,0.0000000,0.0279940,0.0520602,0.0000000,0.0000000,0.0071987,0.0000000,0.0000000,0.0000000,0.0520602,0.0000000,0.0000000,0.0071987,0.0000000,0.0000000,0.0000000,0.0520602,0.0000000,0.0000000,0.0071987,0.0071987,0.0000000,0.0000000,0.0019886,0.0000000,0.0000000,0.0000000,0.0071987,0.0000000,0.0000000,0.0019886,0.0000000,0.0000000,0.0000000,0.0071987,0.0000000,0.0000000,0.0019886
33.4250170,1.0003999,,-0.9873442,-0.1585777,0.0000530,0.0021212,-0.0018018,-0.0038352,-0.0026353,,,,1.1545172,-7.1700058,-21.3562450,0.0000000,0.0000000,0.0000000,0.0200080,0.0523483,0.0000000,0.0000000,0.0072385,0.0000000,0.0000000,0.0000000,0.0523483,0.0000000,0.0000000,0.0072385,0.0000000,0.0000000,0.0000000,0.0523483,0.0000000,0.0000000,0.0072385,0.0072385,0.0000000,0.0000000,0.0019941,0.0000000,0.0000000,0.0000000,0.0072385,0.0000000,0.0000000,0.0019941,0.0000000,0.0000000,0.0000000,0.0072385,0.0000000,0.0000000,0.0019941
33.4447350,1.0002501,,-0.9873441,-0.1585777,0.0000566,0.0021528,0.0044320,-0.0051219,0.0023445,,,,1.1545172,-7.1700058,-21.3562450,0.0000000,0.0000000,0.0000000,0.0200050,0.0526379,0.0000000,0.0000000,0.0072785,0.0000000,0.0000000,0.0000000,0.0526379,0.0000000,0.0000000,0.0072785,0.0000000,0.0000000,0.0000000,0.0526379,0.0000000,0.0000000,0.0072785,0.0072785,0.0000000,0.0000000,0.0019996,0.0000000,0.0000000,0.0000000,0.0072785,0.0000000,0.0000000,0.0019996,0.0000000,0.0000000,0.0000000,0.0072785,0.0000000,0.0000000,0.0019996
33.4655670,1.0494001,,-0.9873441,-0.1585778,0.0000388,0.0021615,0.0021397,-0.0008978,0.0053226,,,,1.1545172,-7.1700058,-21.3562450,0.0000000,0.0000000,0.0000000,0.0209880,0.0529434,0.0000000,0.0000000,0.0073205,0.0000000,0.0000000,0.0000000,0.0529434,0.0000000,0.0000000,0.0073205,0.0000000,0.0000000,0.0000000,0.0529434,0.0000000,0.0000000,0.0073205,0.0073205,0.0000000,0.0000000,0.0020054,0.0000000,0.0000000,0.0000000,0.0073205,0.0000000,0.0000000,0.0020054,0.0000000,0.0000000,0.0000000,0.0073205,0.0000000,0.0000000,0.0020054
33.4811130,,1.0200399,-0.9873441,-0.1585778,0.0000388,0.0021615,,,,0.0000000,0.0000000,0.0000000,1.1545172,-7.1700058,-21.3562450,0.0000000,0.0000000,0.0000000,0.1020040,0.0514916,0.0000000,0.0000000,0.0071198,0.0000000,0.0000000,0.0000000,0.0514916,0.0000000,0.0000000,0.0071198,0.0000000,0.0000000,0.0000000,0.0514916,0.0000000,0.0000000,0.0071198,0.0071198,0.0000000,0.0000000,0.0019776,0.0000000,0.0000000,0.0000000,0.0071198,0.0000000,0.0000000,0.0019776,0.0000000,0.0000000,0.0000000,0.0071198,0.0000000,0.0000000,0.0019776
33.4956800,1.1009001,,-0.9873441,-0.1585778,0.0000253,0.0021708,0.0039156,-0.0007312,0.0043703,,,,1.1545172,-7.1700058,-21.3562450,0.0000000,0.0000000,0.0000000,0.0220180,0.0518051,0.0000000,0.0000000,0.0071634,0.0000000,0.0000000,0.0000000,0.0518051,0.0000000,0.0000000,0.0071634,0.0000000,0.0000000,0.0000000,0.0518051,0.0000000,0.0000000,0.0071634,0.0071634,0.0000000,0.0000000,0.0019837,0.0000000,0.0000000,0.0000000,0.0071634,0.0000000,0.0000000,0.0019837,0.0000000,0.0000000,0.0000000,0.0071634,0.0000000,0.0000000,0.0019837
33.5089300,1.0490000,,-0.9873441,-0.1585778,0.0000260,0.0021797,0.0038346,-0.0043024,0.0080445,,,,1.1545172,-7.1700058,-21.3562450,0.0000000,0.0000000,0.0000000,0.0209800,0.0521057,0.0000000,0.0000000,0.0072050,0.0000000,0.0000000,0.0000000,0.0521057,0.0000000,0.0000000,0.0072050,0.0000000,0.0000000,0.0000000,0.0521057,0.0000000,0.0000000,0.0072050,0.0072050,0.0000000,0.0000000,0.0019894,0.0000000,0.0000000,0.0000000,0.0072050,0.0000000,0.0000000,0.0019894,0.0000000,0.0000000,0.0000000,0.0072050,0.0000000,0.0000000,0.0019894
33.5290250,1.0001501,,-0.9873441,-0.1585778,0.0000140,0.0021728,0.0054879,-0.0041577,0.0067078,,,,1.1545172,-7.1700058,-21.3562450,0.0000000,0.0000000,0.0000000,0.0200030,0.0523940,0.0000000,0.0000000,0.0072449,0.0000000,0.0000000,0.0000000,0.0523940,0.0000000,0.0000000,0.0072449,0.0000000,0.0000000,0.0000000,0.0523940,0.0000000,0.0000000,0.0072449,0.0072449,0.0000000,0.0000000,0.0019949,0.0000000,0.0000000,0.0000000,0.0072449,0.0000000,0.0000000,0.0019949,0.0000000,0.0000000,0.0000000,0.0072449,0.0000000,0.0000000,0.0019949
33.5489600,0.9999000,,-0.9873441,-0.1585778,0.0000230,0.0021512,0.0009739,-0.0011862,0.0067719,,,,1.1545172,-7.1700058,-21.3562450,0.0000000,0.0000000,0.0000000,0.0199980,0.0526837,0.0000000,0.0000000,0.0072848,0.0000000,0.0000000,0.0000000,0.0526837,0.0000000,0.0000000,0.0072848,0.0000000,0.0000000,0.0000000,0.0526837,0.0000000,0.0000000,0.0072848,0.0072848,0.0000000,0.0000000,0.0020004,0.0000000,0.0000000,0.0000000,0.0072848,0.0000000,0.0000000,0.0020004,0.0000000,0.0000000,0.0000000,0.0072848,0.0000000,0.0000000,0.0020004
33.5689160,1.0000501,,-0.9873442,-0.1585778,0.0000378,0.0021299,0.0002047,-0.0014323,0.0070480,,,,1.1545172,-7.1700058,-21.3562450,0.0000000,0.0000000,0.0000000,0.0200010,0.0529751,0.0000000,0.0000000,0.0073249,0.0000000,0.0000000,0.0000000,0.0529751,0.0000000,0.0000000,0.0073249,0.0000000,0.0000000,0.0000000,0.0529751,0.0000000,0.0000000,0.0073249,0.0073249,0.0000000,0.0000000,0.0020059,0.0000000,0.0000000,0.0000000,0.0073249,0.0000000,0.0000000,0.0020059,0.0000000,0.0000000,0.0000000,0.0073249,0.0000000,0.0000000,0.0020059
33.5849180,,1.0001000,-0.9873442,-0.1585778,0.0000378,0.0021299,,,,0.0000000,0.0000000,0.0000000,1.1545172,-7.1700058,-21.3562450,0.0000000,0.0000000,0.0000000,0.1000100,0.0515216,0.0000000,0.0000000,0.0071239,0.0000000,0.0000000,0.0000000,0.0515216,0.0000000,0.0000000,0.0071239,0.0000000,0.0000000,0.0000000,0.0515216,0.0000000,0.0000000,0.0071239,0.0071239,0.0000000,0.0000000,0.0019781,0.0000000,0.0000000,0.0000000,0.0071239,0.0000000,0.0000000,0.0019781,0.0000000,0.0000000,0.0000000,0.0071239,0.0000000,0.0000000,0.0019781
33.5984200,1.0005500,,-0.9873443,-0.1585777,0.0000789,0.0021093,-0.0069396,-0.0003423,0.0057213,,,,1.1545172,-7.1700058,-21.3562450,0.0000000,0.0000000,0.0000000,0.0200110,0.0518067,0.0000000,0.0000000,0.0071636,0.0000000,0.0000000,0.0000000,0.0518067,0.0000000,0.0000000,0.0071636,0.0000000,0.0000000,0.0000000,0.0518067,0.0000000,0.0000000,0.0071636,0.0071636,0.0000000,0.0000000,0.0019836,0.0000000,0.0000000,0.0000000,0.0071636,0.0000000,0.0000000,0.0019836,0.0000000,0.0000000,0.0000000,0.0071636,0.0000000,0.0000000,0.0019836
33.6119490,1.1494001,,-0.9873443,-0.1585777,0.0000954,0.0020940,-0.0005096,0.0011716,0.0057903,,,,1.1545172,-7.1700058,-21.3562450,0.0000000,0.0000000,0.0000000,0.0229880,0.0521361,0.0000000,0.0000000,0.0072092,0.0000000,0.0000000,0.0000000,0.0521361,0.0000000,0.0000000,0.0072092,0.0000000,0.0000000,0.0000000,0.0521361,0.0000000,0.0000000,0.0072092,0.0072092,0.0000000,0.0000000,0.0019899,0.0000000,0.0000000,0.0000000,0.0072092,0.0000000,0.0000000,0.0019899,0.0000000,0.0000000,0.0000000,0.0072092,0.0000000,0.0000000,0.0019899
33.6318390,1.0001000,,-0.9873443,-0.1585777,0.0000724,0.0020843,0.0048416,-0.0005281,0.0048483,,,,1.1545172,-7.1700058,-21.3562450,0.0000000,0.0000000,0.0000000,0.0200020,0.0524245,0.0000000,0.0000000,0.0072491,0.0000000,0.0000000,0.0000000,0.0524245,0.0000000,0.0000000,0.0072491,0.0000000,0.0000000,0.0000000,0.0524245,0.0000000,0.0000000,0.0072491,0.0072491,0.0000000,0.0000000,0.0019954,0.0000000,0.0000000,0.0000000,0.0072491,0.0000000,0.0000000,0.0019954,0.0000000,0.0000000,0.0000000,0.0072491,0.0000000,0.0000000,0.0019954
33.6518910,0.9998500,,-0.9873443,-0.1585778,0.0000602,0.0020608,-0.0022484,0.0029784,0.0051097,,,,1.1545172,-7.1700058,-21.3562450,0.0000000,0.0000000,0.0000000,0.0199970,0.0527144,0.0000000,0.0000000,0.0072890,0.0000000,0.0000000,0.0000000,0.0527144,0.0000000,0.0000000,0.0072890,0.0000000,0.0000000,0.0000000,0.0527144,0.0000000,0.0000000,0.0072890,0.0072890,0.0000000,0.0000000,0.0020009,0.0000000,0.0000000,0.0000000,0.0072890,0.0000000,0.0000000,0.0020009,0.0000000,0.0000000,0.0000000,0.0072890,0.0000000,0.0000000,0.0020009
33.6717750,1.0008500,,-0.9873443,-0.1585778,0.0000629,0.0020756,-0.0016277,-0.0010743,0.0027990,,,,1.1545172,-7.1700058,-21.3562450,0.0000000,0.0000000,0.0000000,0.0200170,0.0530062,0.0000000,0.0000000,0.0073291,0.0000000,0.0000000,0.0000000,0.0530062,0.0000000,0.0000000,0.0073291,0.0000000,0.0000000,0.0000000,0.0530062,0.0000000,0.0000000,0.0073291,0.0073291,0.0000000,0.0000000,0.0020064,0.0000000,0.0000000,0.0000000,0.0073291,0.0000000,0.0000000,0.0020064,0.0000000,0.0000000,0.0000000,0.0073291,0.0000000,0.0000000,0.0020064
33.6880330,,0.9999400,-0.9873443,-0.1585778,0.0000629,0.0020756,,,,0.0000000,0.0000000,0.0000000,1.1545172,-7.1700058,-21.3562450,0.0000000,0.0000000,0.0000000,0.0999940,0.0515510,0.0000000,0.0000000,0.0071279,0.0000000,0.0000000,0.0000000,0.0515510,0.0000000,0.0000000,0.0071279,0.0000000,0.0000000,0.0000000,0.0515510,0.0000000,0.0000000,0.0071279,0.0071279,0.0000000,0.0000000,0.0019785,0.0000000,0.0000000,0.0000000,0.0071279,0.0000000,0.0000000,0.0019785,0.0000000,0.0000000,0.0000000,0.0071279,0.0000000,0.0000000,0.0019785
33.7016600,1.0992501,,-0.9873443,-0.1585777,0.0000673,0.0021038,-0.0010809,0.0028045,-0.0054364,,,,1.1545172,-7.1700058,-21.3562450,0.0000000,0.0000000,0.0000000,0.0219850,0.0518644,0.0000000,0.0000000,0.0071715,0.0000000,0.0000000,0.0000000,0.0518644,0.0000000,0.0000000,0.0071715,0.0000000,0.0000000,0.0000000,0.0518644,0.0000000,0.0000000,0.0071715,0.0071715,0.0000000,0.0000000,0.0019846,0.0000000,0.0000000,0.0000000,0.0071715,0.0000000,0.0000000,0.0019846,0.0000000,0.0000000,0.0000000,0.0071715,0.0000000,0.0000000,0.0019846
33.7148990,1.0499500,,-0.9873442,-0.1585778,0.0000597,0.0021230,0.0025952,-0.0001312,-0.0024741,,,,1.1545172,-7.1700058,-21.3562450,0.0000000,0.0000000,0.0000000,0.0209990,0.0521656,0.0000000,0.0000000,0.0072132,0.0000000,0.0000000,0.0000000,0.0521656,0.0000000,0.0000000,0.0072132,0.0000000,0.0000000,0.0000000,0.0521656,0.0000000,0.0000000,0.0072132,0.0072132,0.0000000,0.0000000,0.0019903,0.0000000,0.0000000,0.0000000,0.0072132,0.0000000,0.0000000,0.0019903,0.0000000,0.0000000,0.0000000,0.0072132,0.0000000,0.0000000,0.0019903
33.7349140,0.9999500,,-0.9873441,-0.1585778,0.0000495,0.0021429,0.0022208,-0.0010956,-0.0056316,,,,1.1545172,-7.1700058,-21.3562450,0.0000000,0.0000000,0.0000000,0.0199990,0.0524541,0.0000000,0.0000000,0.0072531,0.0000000,0.0000000,0.0000000,0.0524541,0.0000000,0.0000000,0.0072531,0.0000000,0.0000000,0.0000000,0.0524541,0.0000000,0.0000000,0.0072531,0.0072531,0.0000000,0.0000000,0.0019958,0.0000000,0.0000000,0.0000000,0.0072531,0.0000000,0.0000000,0.0019958,0.0000000,0.0000000,0.0000000,0.0072531,0.0000000,0.0000000,0.0019958
33.7548130,1.0007000,,-0.9873441,-0.1585778,0.0000456,0.0021570,-0.0004079,-0.0001053,-0.0074545,,,,1.1545172,-7.1700058,-21.3562450,0.0000000,0.0000000,0.0000000,0.0200140,0.0527444,0.0000000,0.0000000,0.0072931,0.0000000,0.0000000,0.0000000,0.0527444,0.0000000,0.0000000,0.0072931,0.0000000,0.0000000,0.0000000,0.0527444,0.0000000,0.0000000,0.0072931,0.0072931,0.0000000,0.0000000,0.0020013,0.0000000,0.0000000,0.0000000,0.0072931,0.0000000,0.0000000,0.0020013,0.0000000,0.0000000,0.0000000,0.0072931,0.0000000,0.0000000,0.0020013
33.7760050,1.0494001,,-0.9873441,-0.1585779,0.0000091,0.0021552,-0.0017908,0.0059822,-0.0044597,,,,1.1545172,-7.1700058,-21.3562450,0.0000000,0.0000000,0.0000000,0.0209880,0.0530505,0.0000000,0.0000000,0.0073351,0.0000000,0.0000000,0.0000000,0.0530505,0.0000000,0.0000000,0.0073351,0.0000000,0.0000000,0.0000000,0.0530505,0.0000000,0.0000000,0.0073351,0.0073351,0.0000000,0.0000000,0.0020071,0.0000000,0.0000000,0.0000000,0.0073351,0.0000000,0.0000000,0.0020071,0.0000000,0.0000000,0.0000000,0.0073351,0.0000000,0.0000000,0.0020071
33.7931720,,1.0199200,-0.9873441,-0.1585779,0.0000091,0.0021552,,,,0.0000000,0.0000000,0.0000000,1.1545172,-7.1700058,-21.3562450,0.0000000,0.0000000,0.0000000,0.1019920,0.0515929,0.0000000,0.0000000,0.0071336,0.0000000,0.0000000,0.0000000,0.0515929,0.0000000,0.0000000,0.0071336,0.0000000,0.0000000,0.0000000,0.0515929,0.0000000,0.0000000,0.0071336,0.0071336,0.0000000,0.0000000,0.0019792,0.0000000,0.0000000,0.0000000,0.0071336,0.0000000,0.0000000,0.0019792,0.0000000,0.0000000,0.0000000,0.0071336,0.0000000,0.0000000,0.0019792
33.8067940,1.1007000,,-0.9873441,-0.1585779,0.0000045,0.0021559,-0.0004987,0.0017094,-0.0014974,,,,1.1545172,-7.1700058,-21.3562450,0.0000000,0.0000000,0.0000000,0.0220140,0.0519070,0.0000000,0.0000000,0.0071772,0.0000000,0.0000000,0.0000000,0.0519070,0.0000000,0.0000000,0.0071772,0.0000000,0.0000000,0.0000000,0.0519070,0.0000000,0.0000000,0.0071772,0.0071772,0.0000000,0.0000000,0.0019853,0.0000000,0.0000000,0.0000000,0.0071772,0.0000000,0.0000000,0.0019853,0.0000000,0.0000000,0.0000000,0.0071772,0.0000000,0.0000000,0.0019853
33.8196800,1.0998001,,-0.9873441,-0.1585779,-0.0000215,0.0021453,0.0042520,0.0041811,-0.0031901,,,,1.1545172,-7.1700058,-21.3562450,0.0000000,0.0000000,0.0000000,0.0219960,0.0522227,0.0000000,0.0000000,0.0072209,0.0000000,0.0000000,0.0000000,0.0522227,0.0000000,0.0000000,0.0072209,0.0000000,0.0000000,0.0000000,0.0522227,0.0000000,0.0000000,0.0072209,0.0072209,0.0000000,0.0000000,0.0019913,0.0000000,0.0000000,0.0000000,0.0072209,0.0000000,0.0000000,0.0019913,0.0000000,0.0000000,0.0000000,0.0072209,0.0000000,0.0000000,0.0019913
33.8396200,0.9995000,,-0.9873441,-0.1585779,-0.0000152,0.0021431,0.0010503,-0.0004348,0.0008464,,,,1.1545172,-7.1700058,-21.3562450,0.0000000,0.0000000,0.0000000,0.0199900,0.0525114,0.0000000,0.0000000,0.0072608,0.0000000,0.0000000,0.0000000,0.0525114,0.0000000,0.0000000,0.0072608,0.0000000,0.0000000,0.0000000,0.0525114,0.0000000,0.0000000,0.0072608,0.0072608,0.0000000,0.0000000,0.0019968,0.0000000,0.0000000,0.0000000,0.0072608,0.0000000,0.0000000,0.0019968,0.0000000,0.0000000,0.0000000,0.0072608,0.0000000,0.0000000,0.0019968
33.8596210,1.0000000,,-0.9873442,-0.1585779,-0.0000141,0.0021171,-0.0017713,0.0003853,0.0026204,,,,1.1545172,-7.1700058,-21.3562450,0.0000000,0.0000000,0.0000000,0.0200000,0.0528019,0.0000000,0.0000000,0.0073008,0.0000000,0.0000000,0.0000000,0.0528019,0.0000000,0.0000000,0.0073008,0.0000000,0.0000000,0.0000000,0.0528019,0.0000000,0.0000000,0.0073008,0.0073008,0.0000000,0.0000000,0.0020023,0.0000000,0.0000000,0.0000000,0.0073008,0.0000000,0.0000000,0.0020023,0.0000000,0.0000000,0.0000000,0.0073008,0.0000000,0.0000000,0.0020023
33.8843100,,1.0100299,-0.9873443,-0.1585780,-0.0000182,0.0021051,,,,0.0000000,0.0000000,0.0000000,1.1545172,-7.1700058,-21.3562450,0.0000000,0.0000000,0.0000000,0.1010030,0.0513577,0.0000000,0.0000000,0.0071011,0.0000000,0.0000000,0.0000000,0.0513577,0.0000000,0.0000000,0.0071011,0.0000000,0.0000000,0.0000000,0.0513577,0.0000000,0.0000000,0.0071011,0.0071011,0.0000000,0.0000000,0.0019747,0.0000000,0.0000000,0.0000000,0.0071011,0.0000000,0.0000000,0.0019747,0.0000000,0.0000000,0.0000000,0.0071011,0.0000000,0.0000000,0.0019747
33.8977140,1.1002500,,-0.9873443,-0.1585780,-0.0000182,0.0021051,-0.0039222,-0.0021343,-0.0025960,,,,1.1545172,-7.1700058,-21.3562450,0.0000000,0.0000000,0.0000000,0.0220050,0.0516702,0.0000000,0.0000000,0.0071446,0.0000000,0.0000000,0.0000000,0.0516702,0.0000000,0.0000000,0.0071446,0.0000000,0.0000000,0.0000000,0.0516702,0.0000000,0.0000000,0.0071446,0.0071446,0.0000000,0.0000000,0.0019807,0.0000000,0.0000000,0.0000000,0.0071446,0.0000000,0.0000000,0.0019807,0.0000000,0.0000000,0.0000000,0.0071446,0.0000000,0.0000000,0.0019807
33.9109870,1.4496500,,-0.9873443,-0.1585780,-0.0000325,0.0021107,0.0010754,-0.0011816,0.0030965,,,,1.1545172,-7.1700058,-21.3562450,0.0000000,0.0000000,0.0000000,0.0289930,0.0520845,0.0000000,0.0000000,0.0072021,0.0000000,0.0000000,0.0000000,0.0520845,0.0000000,0.0000000,0.0072021,0.0000000,0.0000000,0.0000000,0.0520845,0.0000000,0.0000000,0.0072021,0.0072021,0.0000000,0.0000000,0.0019887,0.0000000,0.0000000,0.0000000,0.0072021,0.0000000,0.0000000,0.0019887,0.0000000,0.0000000,0.0000000,0.0072021,0.0000000,0.0000000,0.0019887
33.9322100,1.0001501,,-0.9873443,-0.1585779,-0.0000066,0.0021140,-0.0029489,0.0000424,0.0015483,,,,1.1545172,-7.1700058,-21.3562450,0.0000000,0.0000000,0.0000000,0.0200030,0.0523726,0.0000000,0.0000000,0.0072420,0.0000000,0.0000000,0.0000000,0.0523726,0.0000000,0.0000000,0.0072420,0.0000000,0.0000000,0.0000000,0.0523726,0.0000000,0.0000000,0.0072420,0.0072420,0.0000000,0.0000000,0.0019941,0.0000000,0.0000000,0.0000000,0.0072420,0.0000000,0.0000000,0.0019941,0.0000000,0.0000000,0.0000000,0.0072420,0.0000000,0.0000000,0.0019941
33.9509380,0.9998500,,-0.9873443,-0.1585780,-0.0000272,0.0020950,0.0037669,0.0027983,0.0059011,,,,1.1545172,-7.1700058,-21.3562450,0.0000000,0.0000000,0.0000000,0.0199970,0.0526623,0.0000000,0.0000000,0.0072819,0.0000000,0.0000000,0.0000000,0.0526623,0.0000000,0.0000000,0.0072819,0.0000000,0.0000000,0.0000000,0.0526623,0.0000000,0.0000000,0.0072819,0.0072819,0.0000000,0.0000000,0.0019996,0.0000000,0.0000000,0.0000000,0.0072819,0.0000000,0.0000000,0.0019996,0.0000000,0.0000000,0.0000000,0.0072819,0.0000000,0.0000000,0.0019996
33.9709070,1.0001501,,-0.9873443,-0.1585780,-0.0000265,0.0020540,0.0010519,0.0080215,0.0009974,,,,1.1545172,-7.1700058,-21.3562450,0.0000000,0.0000000,0.0000000,0.0200030,0.0529536,0.0000000,0.0000000,0.0073220,0.0000000,0.0000000,0.0000000,0.0529536,0.0000000,0.0000000,0.0073220,0.0000000,0.0000000,0.0000000,0.0529536,0.0000000,0.0000000,0.0073220,0.0073220,0.0000000,0.0000000,0.0020051,0.0000000,0.0000000,0.0000000,0.0073220,0.0000000,0.0000000,0.0020051,0.0000000,0.0000000,0.0000000,0.0073220,0.0000000,0.0000000,0.0020051
33.9869680,,1.0000600,-0.9873443,-0.1585780,-0.0000265,0.0020540,,,,0.0000000,0.0000000,0.0000000,1.1545172,-7.1700058,-21.3562450,0.0000000,0.0000000,0.0000000,0.1000060,0.0515012,0.0000000,0.0000000,0.0071211,0.0000000,0.0000000,0.0000000,0.0515012,0.0000000,0.0000000,0.0071211,0.0000000,0.0000000,0.0000000,0.0515012,0.0000000,0.0000000,0.0071211,0.0071211,0.0000000,0.0000000,0.0019774,0.0000000,0.0000000,0.0000000,0.0071211,0.0000000,0.0000000,0.0019774,0.0000000,0.0000000,0.0000000,0.0071211,0.0000000,0.0000000,0.0019774
34.0005770,1.0003999,,-0.9873444,-0.1585780,-0.0000151,0.0020368,-0.0007711,0.0064979,0.0024518,,,,1.1545172,-7.1700058,-21.3562450,0.0000000,0.0000000,0.0000000,0.0200080,0.0517862,0.0000000,0.0000000,0.0071608,0.0000000,0.0000000,0.0000000,0.0517862,0.0000000,0.0000000,0.0071608,0.0000000,0.0000000,0.0000000,0.0517862,0.0000000,0.0000000,0.0071608,0.0071608,0.0000000,0.0000000,0.0019828,0.0000000,0.0000000,0.0000000,0.0071608,0.0000000,0.0000000,0.0019828,0.0000000,0.0000000,0.0000000,0.0071608,0.0000000,0.0000000,0.0019828
34.0138680,1.1495000,,-0.9873444,-0.1585780,-0.0000035,0.0020069,-0.0026438,0.0042332,-0.0019479,,,,1.1545172,-7.1700058,-21.3562450,0.0000000,0.0000000,0.0000000,0.0229900,0.0521154,0.0000000,0.0000000,0.0072064,0.0000000,0.0000000,0.0000000,0.0521154,0.0000000,0.0000000,0.0072064,0.0000000,0.0000000,0.0000000,0.0521154,0.0000000,0.0000000,0.0072064,0.0072064,0.0000000,0.0000000,0.0019892,0.0000000,0.0000000,0.0000000,0.0072064,0.0000000,0.0000000,0.0019892,0.0000000,0.0000000,0.0000000,0.0072064,0.0000000,0.0000000,0.0019892
34.0340150,1.0003500,,-0.9873444,-0.1585780,-0.0000008,0.0020135,-0.0011464,-0.0046736,-0.0075658,,,,1.1545172,-7.1700058,-21.3562450,0.0000000,0.0000000,0.0000000,0.0200070,0.0524038,0.0000000,0.0000000,0.0072463,0.0000000,0.0000000,0.0000000,0.0524038,0.0000000,0.0000000,0.0072463,0.0000000,0.0000000,0.0000000,0.0524038,0.0000000,0.0000000,0.0072463,0.0072463,0.0000000,0.0000000,0.0019946,0.0000000,0.0000000,0.0000000,0.0072463,0.0000000,0.0000000,0.0019946,0.0000000,0.0000000,0.0000000,0.0072463,0.0000000,0.0000000,0.0019946
34.0539700,0.9996500,,-0.9873408,-0.1586000,-0.0000661,0.0020137,0.0321874,-0.0115989,-0.0238024,,,,1.1545172,-7.1700058,-21.3562450,0.0000000,0.0000000,0.0000000,0.0199930,0.0526935,0.0000000,0.0000000,0.0072862,0.0000000,0.0000000,0.0000000,0.0526935,0.0000000,0.0000000,0.0072862,0.0000000,0.0000000,0.0000000,0.0526935,0.0000000,0.0000000,0.0072862,0.0072862,0.0000000,0.0000000,0.0020001,0.0000000,0.0000000,0.0000000,0.0072862,0.0000000,0.0000000,0.0020001,0.0000000,0.0000000,0.0000000,0.0072862,0.0000000,0.0000000,0.0020001
34.0737190,1.0008000,,-0.9872935,-0.1588818,0.0000063,0.0027320,0.0573764,-0.0985653,0.0051810,,,,1.1545172,-7.1700058,-21.3562450,0.0000000,0.0000000,0.0000000,0.0200160,0.0529852,0.0000000,0.0000000,0.0073263,0.0000000,0.0000000,0.0000000,0.0529852,0.0000000,0.0000000,0.0073263,0.0000000,0.0000000,0.0000000,0.0529852,0.0000000,0.0000000,0.0073263,0.0073263,0.0000000,0.0000000,0.0020056,0.0000000,0.0000000,0.0000000,0.0073263,0.0000000,0.0000000,0.0020056,0.0000000,0.0000000,0.0000000,0.0073263,0.0000000,0.0000000,0.0020056
34.0901040,,0.9999200,-0.9872935,-0.1588818,0.0000063,0.0027320,,,,0.0000000,0.0000000,0.0000000,1.1545172,-7.1700058,-21.3562450,0.0000000,0.0000000,0.0000000,0.0999920,0.0515311,0.0000000,0.0000000,0.0071252,0.0000000,0.0000000,0.0000000,0.0515311,0.0000000,0.0000000,0.0071252,0.0000000,0.0000000,0.0000000,0.0515311,0.0000000,0.0000000,0.0071252,0.0071252,0.0000000,0.0000000,0.0019778,0.0000000,0.0000000,0.0000000,0.0071252,0.0000000,0.0000000,0.0019778,0.0000000,0.0000000,0.0000000,0.0071252,0.0000000,0.0000000,0.0019778
34.1044550,1.0992501,,-0.9872762,-0.1589870,0.0000384,0.0029190,-0.0288603,0.1254305,0.0086864,,,,1.1545172,-7.1700058,-21.3562450,0.0000000,0.0000000,0.0000000,0.0219850,0.0518444,0.0000000,0.0000000,0.0071688,0.0000000,0.0000000,0.0000000,0.0518444,0.0000000,0.0000000,0.0071688,0.0000000,0.0000000,0.0000000,0.0518444,0.0000000,0.0000000,0.0071688,0.0071688,0.0000000,0.0000000,0.0019839,0.0000000,0.0000000,0.0000000,0.0071688,0.0000000,0.0000000,0.0019839,0.0000000,0.0000000,0.0000000,0.0071688,0.0000000,0.0000000,0.0019839
34.1192260,1.0999500,,-0.9872188,-0.1593249,0.0006548,0.0036122,-0.1520416,0.0786454,-0.0632990,,,,1.1545172,-7.1700058,-21.3562450,0.0000000,0.0000000,0.0000000,0.0219990,0.0521598,0.0000000,0.0000000,0.0072125,0.0000000,0.0000000,0.0000000,0.0521598,0.0000000,0.0000000,0.0072125,0.0000000,0.0000000,0.0000000,0.0521598,0.0000000,0.0000000,0.0072125,0.0072125,0.0000000,0.0000000,0.0019899,0.0000000,0.0000000,0.0000000,0.0072125,0.0000000,0.0000000,0.0019899,0.0000000,0.0000000,0.0000000,0.0072125,0.0000000,0.0000000,0.0019899
34.1392470,1.0002000,,-0.9871911,-0.1594889,0.0010801,0.0038650,0.4116272,-0.2654487,0.3069583,,,,1.1545784,-7.1699290,-21.3563061,0.0061226,0.0076774,-0.0061052,0.0200040,0.0524484,0.0000000,0.0000000,0.0072523,0.0000000,0.0000000,0.0000000,0.0524484,0.0000000,0.0000000,0.0072523,0.0000000,0.0000000,0.0000000,0.0524484,0.0000000,0.0000000,0.0072523,0.0072523,0.0000000,0.0000000,0.0019954,0.0000000,0.0000000,0.0000000,0.0072523,0.0000000,0.0000000,0.0019954,0.0000000,0.0000000,0.0000000,0.0072523,0.0000000,0.0000000,0.0019954
34.1576960,1.0002999,,-0.9871967,-0.1594505,0.0008042,0.0041325,0.3528549,-0.7603717,0.7174287,,,,1.1547196,-7.1696076,-21.3565712,0.0079922,0.0244512,-0.0203315,0.0200060,0.0527386,0.0000000,0.0000000,0.0072923,0.0000000,0.0000000,0.0000000,0.0527386,0.0000000,0.0000000,0.0072923,0.0000000,0.0000000,0.0000000,0.0527386,0.0000000,0.0000000,0.0072923,0.0072923,0.0000000,0.0000000,0.0020009,0.0000000,0.0000000,0.0000000,0.0072923,0.0000000,0.0000000,0.0020009,0.0000000,0.0000000,0.0000000,0.0072923,0.0000000,0.0000000,0.0020009
34.1804100,1.0496000,,-0.9872162,-0.1593306,0.0004536,0.0041595,-0.2631019,-0.7437112,-0.7389572,,,,1.1547811,-7.1689582,-21.3568344,-0.0021272,0.0374073,-0.0046918,0.0209920,0.0530447,0.0000000,0.0000000,0.0073344,0.0000000,0.0000000,0.0000000,0.0530447,0.0000000,0.0000000,0.0073344,0.0000000,0.0000000,0.0000000,0.0530447,0.0000000,0.0000000,0.0073344,0.0073344,0.0000000,0.0000000,0.0020066,0.0000000,0.0000000,0.0000000,0.0073344,0.0000000,0.0000000,0.0020066,0.0000000,0.0000000,0.0000000,0.0073344,0.0000000,0.0000000,0.0020066
34.1967980,,1.0200000,-0.9872162,-0.1593306,0.0005172,0.0044593,,,,-1.1347435,-0.4334366,-0.0009768,1.1235988,-7.1808949,-21.3568459,-0.0064387,0.0357569,-0.0046932,0.1020000,0.0515874,0.0000000,0.0000000,0.0071329,0.0000000,0.0000000,0.0000000,0.0515874,0.0000000,0.0000000,0.0071329,0.0000000,0.0000000,0.0000000,0.0515874,0.0000000,0.0000000,0.0071329,0.0071329,0.0000000,0.0000000,0.0019788,0.0000000,0.0000000,0.0000000,0.0071329,0.0000000,0.0000000,0.0019788,0.0000000,0.0000000,0.0000000,0.0071329,0.0000000,0.0000000,0.0019788
34.2105340,1.0003999,,-0.9872335,-0.1592156,0.0005172,0.0044593,0.0113323,-0.1226796,-0.6119331,,,,1.1234647,-7.1801562,-21.3568172,-0.0069652,0.0380524,0.0075719,0.0200080,0.0518729,0.0000000,0.0000000,0.0071725,0.0000000,0.0000000,0.0000000,0.0518729,0.0000000,0.0000000,0.0071725,0.0000000,0.0000000,0.0000000,0.0518729,0.0000000,0.0000000,0.0071725,0.0071725,0.0000000,0.0000000,0.0019843,0.0000000,0.0000000,0.0000000,0.0071725,0.0000000,0.0000000,0.0019843,0.0000000,0.0000000,0.0000000,0.0071725,0.0000000,0.0000000,0.0019843
34.2240900,1.2499501,,-0.9872946,-0.1588475,0.0004934,0.0040219,0.0033697,-0.5416102,0.1102856,,,,1.1232384,-7.1790438,-21.3566608,-0.0111382,0.0509563,0.0049247,0.0249990,0.0522315,0.0000000,0.0000000,0.0072222,0.0000000,0.0000000,0.0000000,0.0522315,0.0000000,0.0000000,0.0072222,0.0000000,0.0000000,0.0000000,0.0522315,0.0000000,0.0000000,0.0072222,0.0072222,0.0000000,0.0000000,0.0019911,0.0000000,0.0000000,0.0000000,0.0072222,0.0000000,0.0000000,0.0019911,0.0000000,0.0000000,0.0000000,0.0072222,0.0000000,0.0000000,0.0019911
34.2438770,1.0002000,,-0.9873092,-0.1587390,0.0002402,0.0046512,0.0008380,-0.7182233,-0.5022532,,,,1.1229709,-7.1778889,-21.3564606,-0.0156061,0.0645127,0.0151044,0.0200040,0.0525204,0.0000000,0.0000000,0.0072621,0.0000000,0.0000000,0.0000000,0.0525204,0.0000000,0.0000000,0.0072621,0.0000000,0.0000000,0.0000000,0.0525204,0.0000000,0.0000000,0.0072621,0.0072621,0.0000000,0.0000000,0.0019966,0.0000000,0.0000000,0.0000000,0.0072621,0.0000000,0.0000000,0.0019966,0.0000000,0.0000000,0.0000000,0.0072621,0.0000000,0.0000000,0.0019966
34.2649460,1.0494001,,-0.9872795,-0.1588906,0.0001371,0.0056226,0.1610254,-0.4363364,-0.4801686,,,,1.1226472,-7.1764336,-21.3560371,-0.0152496,0.0741564,0.0252887,0.0209880,0.0528252,0.0000000,0.0000000,0.0073040,0.0000000,0.0000000,0.0000000,0.0528252,0.0000000,0.0000000,0.0073040,0.0000000,0.0000000,0.0000000,0.0528252,0.0000000,0.0000000,0.0073040,0.0073040,0.0000000,0.0000000,0.0020024,0.0000000,0.0000000,0.0000000,0.0073040,0.0000000,0.0000000,0.0020024,0.0000000,0.0000000,0.0000000,0.0073040,0.0000000,0.0000000,0.0020024
34.2876070,,1.0100000,-0.9873106,-0.1586736,-0.0000250,0.0062604,,,,-0.7317568,-0.2429372,-0.0011811,1.1026504,-7.1832032,-21.3560925,-0.0180145,0.0732203,0.0252811,0.1010000,0.0513798,0.0000000,0.0000000,0.0071042,0.0000000,0.0000000,0.0000000,0.0513798,0.0000000,0.0000000,0.0071042,0.0000000,0.0000000,0.0000000,0.0513798,0.0000000,0.0000000,0.0071042,0.0071042,0.0000000,0.0000000,0.0019747,0.0000000,0.0000000,0.0000000,0.0071042,0.0000000,0.0000000,0.0019747,0.0000000,0.0000000,0.0000000,0.0071042,0.0000000,0.0000000,0.0019747
34.3013120,1.1000000,,-0.9873106,-0.1586736,-0.0000250,0.0062604,0.1737210,-1.0180264,0.3973211,,,,1.1022166,-7.1813440,-21.3556290,-0.0214193,0.0957929,0.0168253,0.0220000,0.0516924,0.0000000,0.0000000,0.0071477,0.0000000,0.0000000,0.0000000,0.0516924,0.0000000,0.0000000,0.0071477,0.0000000,0.0000000,0.0000000,0.0516924,0.0000000,0.0000000,0.0071477,0.0071477,0.0000000,0.0000000,0.0019808,0.0000000,0.0000000,0.0000000,0.0071477,0.0000000,0.0000000,0.0019808,0.0000000,0.0000000,0.0000000,0.0071477,0.0000000,0.0000000,0.0019808
34.3164150,1.3999500,,-0.9873184,-0.1586184,-0.0000203,0.0064784,-0.0082094,-0.4843321,0.2684466,,,,1.1015542,-7.1784811,-21.3552608,-0.0259002,0.1086944,0.0094826,0.0279990,0.0520926,0.0000000,0.0000000,0.0072032,0.0000000,0.0000000,0.0000000,0.0520926,0.0000000,0.0000000,0.0072032,0.0000000,0.0000000,0.0000000,0.0520926,0.0000000,0.0000000,0.0072032,0.0072032,0.0000000,0.0000000,0.0019885,0.0000000,0.0000000,0.0000000,0.0072032,0.0000000,0.0000000,0.0019885,0.0000000,0.0000000,0.0000000,0.0072032,0.0000000,0.0000000,0.0019885
34.3350630,1.0000000,,-0.9873374,-0.1584903,-0.0003529,0.0067206,0.1095962,-0.2253890,0.1781228,,,,1.1010429,-7.1762571,-21.3551064,-0.0252343,0.1137090,0.0059860,0.0200000,0.0523808,0.0000000,0.0000000,0.0072430,0.0000000,0.0000000,0.0000000,0.0523808,0.0000000,0.0000000,0.0072430,0.0000000,0.0000000,0.0000000,0.0523808,0.0000000,0.0000000,0.0072430,0.0072430,0.0000000,0.0000000,0.0019939,0.0000000,0.0000000,0.0000000,0.0072430,0.0000000,0.0000000,0.0019939,0.0000000,0.0000000,0.0000000,0.0072430,0.0000000,0.0000000,0.0019939
34.3548420,1.0000000,,-0.9873948,-0.1581376,-0.0009022,0.0065238,-0.2752648,0.0971825,-0.5769923,,,,1.1004920,-7.1740203,-21.3548717,-0.0298540,0.1099916,0.0174791,0.0200000,0.0526705,0.0000000,0.0000000,0.0072830,0.0000000,0.0000000,0.0000000,0.0526705,0.0000000,0.0000000,0.0072830,0.0000000,0.0000000,0.0000000,0.0526705,0.0000000,0.0000000,0.0072830,0.0072830,0.0000000,0.0000000,0.0019994,0.0000000,0.0000000,0.0000000,0.0072830,0.0000000,0.0000000,0.0019994,0.0000000,0.0000000,0.0000000,0.0072830,0.0000000,0.0000000,0.0019994
34.3760300,1.0500500,,-0.9874287,-0.1579208,-0.0014208,0.0065442,-0.3688488,0.0904156,-0.5937177,,,,1.0997939,-7.1717563,-21.3543739,-0.0366308,0.1056052,0.0298852,0.0210010,0.0529764,0.0000000,0.0000000,0.0073250,0.0000000,0.0000000,0.0000000,0.0529764,0.0000000,0.0000000,0.0073250,0.0000000,0.0000000,0.0000000,0.0529764,0.0000000,0.0000000,0.0073250,0.0073250,0.0000000,0.0000000,0.0020052,0.0000000,0.0000000,0.0000000,0.0073250,0.0000000,0.0000000,0.0020052,0.0000000,0.0000000,0.0000000,0.0073250,0.0000000,0.0000000,0.0020052
34.3932440,,1.0000600,-0.9874287,-0.1579208,-0.0014208,0.0065442,,,,-0.7858191,-0.2743212,-0.0042495,1.0783104,-7.1795974,-21.3545380,-0.0396013,0.1045211,0.0298626,0.1000060,0.0515228,0.0000000,0.0000000,0.0071240,0.0000000,0.0000000,0.0000000,0.0515228,0.0000000,0.0000000,0.0071240,0.0000000,0.0000000,0.0000000,0.0515228,0.0000000,0.0000000,0.0071240,0.0071240,0.0000000,0.0000000,0.0019774,0.0000000,0.0000000,0.0000000,0.0071240,0.0000000,0.0000000,0.0019774,0.0000000,0.0000000,0.0000000,0.0071240,0.0000000,0.0000000,0.0019774
34.4069540,1.1001501,,-0.9874095,-0.1580481,-0.0015512,0.0063568,-0.0232382,0.2429312,-0.1445532,,,,1.0774519,-7.1773558,-21.3538475,-0.0384220,0.0992423,0.0329758,0.0220030,0.0518363,0.0000000,0.0000000,0.0071676,0.0000000,0.0000000,0.0000000,0.0518363,0.0000000,0.0000000,0.0071676,0.0000000,0.0000000,0.0000000,0.0518363,0.0000000,0.0000000,0.0071676,0.0071676,0.0000000,0.0000000,0.0019834,0.0000000,0.0000000,0.0000000,0.0071676,0.0000000,0.0000000,0.0019834,0.0000000,0.0000000,0.0000000,0.0071676,0.0000000,0.0000000,0.0019834
34.4213740,1.0997500,,-0.9873859,-0.1581428,-0.0020540,0.0073673,-0.1590190,0.3585872,-0.2676654,,,,1.0765973,-7.1752682,-21.3530598,-0.0392914,0.0905688,0.0387305,0.0219950,0.0521516,0.0000000,0.0000000,0.0072113,0.0000000,0.0000000,0.0000000,0.0521516,0.0000000,0.0000000,0.0072113,0.0000000,0.0000000,0.0000000,0.0521516,0.0000000,0.0000000,0.0072113,0.0072113,0.0000000,0.0000000,0.0019895,0.0000000,0.0000000,0.0000000,0.0072113,0.0000000,0.0000000,0.0019895,0.0000000,0.0000000,0.0000000,0.0072113,0.0000000,0.0000000,0.0019895
34.4401440,1.0000501,,-0.9873572,-0.1583025,-0.0025544,0.0076451,-0.0517919,0.1819944,-0.2884424,,,,1.0758128,-7.1734953,-21.3522282,-0.0391525,0.0866961,0.0444391,0.0200010,0.0524401,0.0000000,0.0000000,0.0072511,0.0000000,0.0000000,0.0000000,0.0524401,0.0000000,0.0000000,0.0072511,0.0000000,0.0000000,0.0000000,0.0524401,0.0000000,0.0000000,0.0072511,0.0072511,0.0000000,0.0000000,0.0019950,0.0000000,0.0000000,0.0000000,0.0072511,0.0000000,0.0000000,0.0019950,0.0000000,0.0000000,0.0000000,0.0072511,0.0000000,0.0000000,0.0019950
34.4598750,1.0001000,,-0.9873642,-0.1582743,-0.0028466,0.0072287,0.2704679,-0.1344590,-0.4440793,,,,1.0750724,-7.1717200,-21.3512497,-0.0348840,0.0908064,0.0533992,0.0200020,0.0527301,0.0000000,0.0000000,0.0072911,0.0000000,0.0000000,0.0000000,0.0527301,0.0000000,0.0000000,0.0072911,0.0000000,0.0000000,0.0000000,0.0527301,0.0000000,0.0000000,0.0072911,0.0072911,0.0000000,0.0000000,0.0020005,0.0000000,0.0000000,0.0000000,0.0072911,0.0000000,0.0000000,0.0020005,0.0000000,0.0000000,0.0000000,0.0072911,0.0000000,0.0000000,0.0020005
34.4810530,1.0500000,,-0.9873502,-0.1583720,-0.0029718,0.0069642,0.2517272,-0.2166207,-0.0414290,,,,1.0743775,-7.1697507,-21.3501186,-0.0312890,0.0967670,0.0543701,0.0210000,0.0530364,0.0000000,0.0000000,0.0073332,0.0000000,0.0000000,0.0000000,0.0530364,0.0000000,0.0000000,0.0073332,0.0000000,0.0000000,0.0000000,0.0530364,0.0000000,0.0000000,0.0073332,0.0073332,0.0000000,0.0000000,0.0020062,0.0000000,0.0000000,0.0000000,0.0073332,0.0000000,0.0000000,0.0020062,0.0000000,0.0000000,0.0000000,0.0073332,0.0000000,0.0000000,0.0020062
34.4974560,,0.9999500,-0.9873502,-0.1583720,-0.0029718,0.0069642,,,,-0.3999082,-0.1319843,-0.0034044,1.0635005,-7.1736465,-21.3503342,-0.0327930,0.0962283,0.0543404,0.0999950,0.0515795,0.0000000,0.0000000,0.0071317,0.0000000,0.0000000,0.0000000,0.0515795,0.0000000,0.0000000,0.0071317,0.0000000,0.0000000,0.0000000,0.0515795,0.0000000,0.0000000,0.0071317,0.0071317,0.0000000,0.0000000,0.0019784,0.0000000,0.0000000,0.0000000,0.0071317,0.0000000,0.0000000,0.0019784,0.0000000,0.0000000,0.0000000,0.0071317,0.0000000,0.0000000,0.0019784
34.5107110,1.1000000,,-0.9873478,-0.1584169,-0.0031274,0.0061382,0.1015182,-0.0862461,-0.0097663,,,,1.0635005,-7.1736465,-21.3503342,0.0000000,0.0000000,0.0000000,0.0220000,0.0518933,0.0000000,0.0000000,0.0071753,0.0000000,0.0000000,0.0000000,0.0518933,0.0000000,0.0000000,0.0071753,0.0000000,0.0000000,0.0000000,0.0518933,0.0000000,0.0000000,0.0071753,0.0071753,0.0000000,0.0000000,0.0019844,0.0000000,0.0000000,0.0000000,0.0071753,0.0000000,0.0000000,0.0019844,0.0000000,0.0000000,0.0000000,0.0071753,0.0000000,0.0000000,0.0019844
34.5239940,1.0498999,,-0.9873425,-0.1584703,-0.0034784,0.0053546,0.0108574,-0.1244219,-0.0901188,,,,1.0635005,-7.1736465,-21.3503342,0.0000000,0.0000000,0.0000000,0.0209980,0.0521946,0.0000000,0.0000000,0.0072170,0.0000000,0.0000000,0.0000000,0.0521946,0.0000000,0.0000000,0.0072170,0.0000000,0.0000000,0.0000000,0.0521946,0.0000000,0.0000000,0.0072170,0.0072170,0.0000000,0.0000000,0.0019902,0.0000000,0.0000000,0.0000000,0.0072170,0.0000000,0.0000000,0.0019902,0.0000000,0.0000000,0.0000000,0.0072170,0.0000000,0.0000000,0.0019902
34.5440030,1.0000000,,-0.9873161,-0.1586641,-0.0035515,0.0042538,0.0262569,-0.1082543,-0.0533830,,,,1.0635005,-7.1736465,-21.3503342,0.0000000,0.0000000,0.0000000,0.0200000,0.0524833,0.0000000,0.0000000,0.0072569,0.0000000,0.0000000,0.0000000,0.0524833,0.0000000,0.0000000,0.0072569,0.0000000,0.0000000,0.0000000,0.0524833,0.0000000,0.0000000,0.0072569,0.0072569,0.0000000,0.0000000,0.0019957,0.0000000,0.0000000,0.0000000,0.0072569,0.0000000,0.0000000,0.0019957,0.0000000,0.0000000,0.0000000,0.0072569,0.0000000,0.0000000,0.0019957
34.5636360,1.0000501,,-0.9873008,-0.1587798,-0.0037971,0.0030518,0.0483992,0.0132251,-0.0179177,,,,1.0635005,-7.1736465,-21.3503342,0.0000000,0.0000000,0.0000000,0.0200010,0.0527736,0.0000000,0.0000000,0.0072969,0.0000000,0.0000000,0.0000000,0.0527736,0.0000000,0.0000000,0.0072969,0.0000000,0.0000000,0.0000000,0.0527736,0.0000000,0.0000000,0.0072969,0.0072969,0.0000000,0.0000000,0.0020011,0.0000000,0.0000000,0.0000000,0.0072969,0.0000000,0.0000000,0.0020011,0.0000000,0.0000000,0.0000000,0.0072969,0.0000000,0.0000000,0.0020011
34.5870140,,1.0100000,-0.9872715,-0.1589767,-0.0038867,0.0019429,,,,-0.0325938,-0.0025761,-0.0002314,1.0626096,-7.1737170,-21.3503399,0.0000000,0.0000000,0.0000000,0.1010000,0.0513310,0.0000000,0.0000000,0.0070974,0.0000000,0.0000000,0.0000000,0.0513310,0.0000000,0.0000000,0.0070974,0.0000000,0.0000000,0.0000000,0.0513310,0.0000000,0.0000000,0.0070974,0.0070974,0.0000000,0.0000000,0.0019736,0.0000000,0.0000000,0.0000000,0.0070974,0.0000000,0.0000000,0.0019736,0.0000000,0.0000000,0.0000000,0.0070974,0.0000000,0.0000000,0.0019736
34.6006050,1.1000500,,-0.9872715,-0.1589767,-0.0038867,0.0019429,0.0076972,0.0617349,-0.0033589,,,,1.0626096,-7.1737170,-21.3503399,0.0000000,0.0000000,0.0000000,0.0220010,0.0516433,0.0000000,0.0000000,0.0071409,0.0000000,0.0000000,0.0000000,0.0516433,0.0000000,0.0000000,0.0071409,0.0000000,0.0000000,0.0000000,0.0516433,0.0000000,0.0000000,0.0071409,0.0071409,0.0000000,0.0000000,0.0019796,0.0000000,0.0000000,0.0000000,0.0071409,0.0000000,0.0000000,0.0019796,0.0000000,0.0000000,0.0000000,0.0071409,0.0000000,0.0000000,0.0019796
34.6137890,1.3998500,,-0.9872569,-0.1590753,-0.0039332,0.0013477,0.0029788,0.0331792,0.0051412,,,,1.0626096,-7.1737170,-21.3503399,0.0000000,0.0000000,0.0000000,0.0279970,0.0520431,0.0000000,0.0000000,0.0071964,0.0000000,0.0000000,0.0000000,0.0520431,0.0000000,0.0000000,0.0071964,0.0000000,0.0000000,0.0000000,0.0520431,0.0000000,0.0000000,0.0071964,0.0071964,0.0000000,0.0000000,0.0019873,0.0000000,0.0000000,0.0000000,0.0071964,0.0000000,0.0000000,0.0019873,0.0000000,0.0000000,0.0000000,0.0071964,0.0000000,0.0000000,0.0019873
34.6349270,1.0504000,,-0.9872497,-0.1591244,-0.0039114,0.0010870,-0.0010130,0.0097079,0.0018229,,,,1.0626096,-7.1737170,-21.3503399,0.0000000,0.0000000,0.0000000,0.0210080,0.0523455,0.0000000,0.0000000,0.0072382,0.0000000,0.0000000,0.0000000,0.0523455,0.0000000,0.0000000,0.0072382,0.0000000,0.0000000,0.0000000,0.0523455,0.0000000,0.0000000,0.0072382,0.0072382,0.0000000,0.0000000,0.0019931,0.0000000,0.0000000,0.0000000,0.0072382,0.0000000,0.0000000,0.0019931,0.0000000,0.0000000,0.0000000,0.0072382,0.0000000,0.0000000,0.0019931
34.6549100,0.9996000,,-0.9872463,-0.1591490,-0.0038669,0.0009504,-0.0017196,-0.0000747,-0.0074046,,,,1.0626096,-7.1737170,-21.3503399,0.0000000,0.0000000,0.0000000,0.0199920,0.0526349,0.0000000,0.0000000,0.0072781,0.0000000,0.0000000,0.0000000,0.0526349,0.0000000,0.0000000,0.0072781,0.0000000,0.0000000,0.0000000,0.0526349,0.0000000,0.0000000,0.0072781,0.0072781,0.0000000,0.0000000,0.0019985,0.0000000,0.0000000,0.0000000,0.0072781,0.0000000,0.0000000,0.0019985,0.0000000,0.0000000,0.0000000,0.0072781,0.0000000,0.0000000,0.0019985
34.6751170,1.0008500,,-0.9872447,-0.1591612,-0.0038189,0.0009108,-0.0020347,-0.0039207,-0.0044423,,,,1.0626096,-7.1737170,-21.3503399,0.0000000,0.0000000,0.0000000,0.0200170,0.0529262,0.0000000,0.0000000,0.0073181,0.0000000,0.0000000,0.0000000,0.0529262,0.0000000,0.0000000,0.0073181,0.0000000,0.0000000,0.0000000,0.0529262,0.0000000,0.0000000,0.0073181,0.0073181,0.0000000,0.0000000,0.0020040,0.0000000,0.0000000,0.0000000,0.0073181,0.0000000,0.0000000,0.0020040,0.0000000,0.0000000,0.0000000,0.0073181,0.0000000,0.0000000,0.0020040
34.6934830,,1.0000600,-0.9872447,-0.1591612,-0.0037750,0.0009255,,,,-0.0006518,-0.0000520,-0.0000049,1.0625917,-7.1737185,-21.3503399,-0.0000025,-0.0000002,-0.0000000,0.1000060,0.0514753,0.0000000,0.0000000,0.0071175,0.0000000,0.0000000,0.0000000,0.0514753,0.0000000,0.0000000,0.0071175,0.0000000,0.0000000,0.0000000,0.0514753,0.0000000,0.0000000,0.0071175,0.0071175,0.0000000,0.0000000,0.0019763,0.0000000,0.0000000,0.0000000,0.0071175,0.0000000,0.0000000,0.0019763,0.0000000,0.0000000,0.0000000,0.0071175,0.0000000,0.0000000,0.0019763
34.7067500,0.9993000,,-0.9872439,-0.1591672,-0.0037750,0.0009255,-0.0058239,-0.0011364,0.0002126,,,,1.0625917,-7.1737185,-21.3503399,0.0000000,0.0000000,0.0000000,0.0199860,0.0517599,0.0000000,0.0000000,0.0071571,0.0000000,0.0000000,0.0000000,0.0517599,0.0000000,0.0000000,0.0071571,0.0000000,0.0000000,0.0000000,0.0517599,0.0000000,0.0000000,0.0071571,0.0071571,0.0000000,0.0000000,0.0019818,0.0000000,0.0000000,0.0000000,0.0071571,0.0000000,0.0000000,0.0019818,0.0000000,0.0000000,0.0000000,0.0071571,0.0000000,0.0000000,0.0019818
34.7198130,1.2498500,,-0.9872436,-0.1591702,-0.0037364,0.0009255,-0.0089010,0.0034220,-0.0011220,,,,1.0625917,-7.1737185,-21.3503399,0.0000000,0.0000000,0.0000000,0.0249970,0.0521177,0.0000000,0.0000000,0.0072067,0.0000000,0.0000000,0.0000000,0.0521177,0.0000000,0.0000000,0.0072067,0.0000000,0.0000000,0.0000000,0.0521177,0.0000000,0.0000000,0.0072067,0.0072067,0.0000000,0.0000000,0.0019886,0.0000000,0.0000000,0.0000000,0.0072067,0.0000000,0.0000000,0.0019886,0.0000000,0.0000000,0.0000000,0.0072067,0.0000000,0.0000000,0.0019886
34.7413260,1.0000501,,-0.9872437,-0.1591716,-0.0036658,0.0009368,-0.0030162,0.0003682,0.0072439,,,,1.0625917,-7.1737185,-21.3503399,0.0000000,0.0000000,0.0000000,0.0200010,0.0524059,0.0000000,0.0000000,0.0072465,0.0000000,0.0000000,0.0000000,0.0524059,0.0000000,0.0000000,0.0072465,0.0000000,0.0000000,0.0000000,0.0524059,0.0000000,0.0000000,0.0072465,0.0072465,0.0000000,0.0000000,0.0019941,0.0000000,0.0000000,0.0000000,0.0072465,0.0000000,0.0000000,0.0019941,0.0000000,0.0000000,0.0000000,0.0072465,0.0000000,0.0000000,0.0019941
34.7599150,1.0000000,,-0.9872437,-0.1591723,-0.0036259,0.0009461,-0.0025075,-0.0050573,0.0031260,,,,1.0625917,-7.1737185,-21.3503399,0.0000000,0.0000000,0.0000000,0.0200000,0.0526958,0.0000000,0.0000000,0.0072864,0.0000000,0.0000000,0.0000000,0.0526958,0.0000000,0.0000000,0.0072864,0.0000000,0.0000000,0.0000000,0.0526958,0.0000000,0.0000000,0.0072864,0.0072864,0.0000000,0.0000000,0.0019996,0.0000000,0.0000000,0.0000000,0.0072864,0.0000000,0.0000000,0.0019996,0.0000000,0.0000000,0.0000000,0.0072864,0.0000000,0.0000000,0.0019996
34.7813570,1.0006500,,-0.9872438,-0.1591726,-0.0035630,0.0009733,-0.0051066,-0.0028262,0.0042409,,,,1.0625917,-7.1737185,-21.3503399,0.0000000,0.0000000,0.0000000,0.0200130,0.0529875,0.0000000,0.0000000,0.0073265,0.0000000,0.0000000,0.0000000,0.0529875,0.0000000,0.0000000,0.0073265,0.0000000,0.0000000,0.0000000,0.0529875,0.0000000,0.0000000,0.0073265,0.0073265,0.0000000,0.0000000,0.0020051,0.0000000,0.0000000,0.0000000,0.0073265,0.0000000,0.0000000,0.0020051,0.0000000,0.0000000,0.0000000,0.0073265,0.0000000,0.0000000,0.0020051
34.7970580,,1.0199300,-0.9872438,-0.1591726,-0.0035630,0.0010079,,,,-0.0000130,-0.0000010,-0.0000001,1.0625913,-7.1737185,-21.3503399,-0.0000000,-0.0000000,-0.0000000,0.1019930,0.0515332,0.0000000,0.0000000,0.0071254,0.0000000,0.0000000,0.0000000,0.0515332,0.0000000,0.0000000,0.0071254,0.0000000,0.0000000,0.0000000,0.0515332,0.0000000,0.0000000,0.0071254,0.0071254,0.0000000,0.0000000,0.0019773,0.0000000,0.0000000,0.0000000,0.0071254,0.0000000,0.0000000,0.0019773,0.0000000,0.0000000,0.0000000,0.0071254,0.0000000,0.0000000,0.0019773
34.8107730,0.9995500,,-0.9872440,-0.1591726,-0.0035114,0.0010079,-0.0053991,-0.0050828,0.0023570,,,,1.0625913,-7.1737185,-21.3503399,0.0000000,0.0000000,0.0000000,0.0199910,0.0518181,0.0000000,0.0000000,0.0071650,0.0000000,0.0000000,0.0000000,0.0518181,0.0000000,0.0000000,0.0071650,0.0000000,0.0000000,0.0000000,0.0518181,0.0000000,0.0000000,0.0071650,0.0071650,0.0000000,0.0000000,0.0019828,0.0000000,0.0000000,0.0000000,0.0071650,0.0000000,0.0000000,0.0019828,0.0000000,0.0000000,0.0000000,0.0071650,0.0000000,0.0000000,0.0019828
34.8237910,1.1997501,,-0.9872443,-0.1591725,-0.0034216,0.0010428,-0.0066439,-0.0081109,0.0004384,,,,1.0625913,-7.1737185,-21.3503399,0.0000000,0.0000000,0.0000000,0.0239950,0.0521620,0.0000000,0.0000000,0.0072127,0.0000000,0.0000000,0.0000000,0.0521620,0.0000000,0.0000000,0.0072127,0.0000000,0.0000000,0.0000000,0.0521620,0.0000000,0.0000000,0.0072127,0.0072127,0.0000000,0.0000000,0.0019894,0.0000000,0.0000000,0.0000000,0.0072127,0.0000000,0.0000000,0.0019894,0.0000000,0.0000000,0.0000000,0.0072127,0.0000000,0.0000000,0.0019894
34.8449300,1.0504000,,-0.9872444,-0.1591725,-0.0033799,0.0010511,-0.0004381,0.0032993,0.0050944,,,,1.0625913,-7.1737185,-21.3503399,0.0000000,0.0000000,0.0000000,0.0210080,0.0524650,0.0000000,0.0000000,0.0072545,0.0000000,0.0000000,0.0000000,0.0524650,0.0000000,0.0000000,0.0072545,0.0000000,0.0000000,0.0000000,0.0524650,0.0000000,0.0000000,0.0072545,0.0072545,0.0000000,0.0000000,0.0019951,0.0000000,0.0000000,0.0000000,0.0072545,0.0000000,0.0000000,0.0019951,0.0000000,0.0000000,0.0000000,0.0072545,0.0000000,0.0000000,0.0019951
34.8649140,0.9997500,,-0.9872446,-0.1591724,-0.0033361,0.0010822,-0.0060860,-0.0033858,-0.0006343,,,,1.0625913,-7.1737185,-21.3503399,0.0000000,0.0000000,0.0000000,0.0199950,0.0527551,0.0000000,0.0000000,0.0072945,0.0000000,0.0000000,0.0000000,0.0527551,0.0000000,0.0000000,0.0072945,0.0000000,0.0000000,0.0000000,0.0527551,0.0000000,0.0000000,0.0072945,0.0072945,0.0000000,0.0000000,0.0020006,0.0000000,0.0000000,0.0000000,0.0072945,0.0000000,0.0000000,0.0020006,0.0000000,0.0000000,0.0000000,0.0072945,0.0000000,0.0000000,0.0020006
34.8865170,1.0008000,,-0.9872448,-0.1591723,-0.0032753,0.0011108,-0.0081013,-0.0047370,-0.0034986,,,,1.0625913,-7.1737185,-21.3503399,0.0000000,0.0000000,0.0000000,0.0200160,0.0530472,0.0000000,0.0000000,0.0073346,0.0000000,0.0000000,0.0000000,0.0530472,0.0000000,0.0000000,0.0073346,0.0000000,0.0000000,0.0000000,0.0530472,0.0000000,0.0000000,0.0073346,0.0073346,0.0000000,0.0000000,0.0020061,0.0000000,0.0000000,0.0000000,0.0073346,0.0000000,0.0000000,0.0020061,0.0000000,0.0000000,0.0000000,0.0073346,0.0000000,0.0000000,0.0020061
34.9021300,,1.0200100,-0.9872448,-0.1591723,-0.0032753,0.0011790,,,,-0.0000003,-0.0000000,-0.0000000,1.0625913,-7.1737185,-21.3503399,-0.0000000,-0.0000000,-0.0000000,0.1020010,0.0515897,0.0000000,0.0000000,0.0071331,0.0000000,0.0000000,0.0000000,0.0515897,0.0000000,0.0000000,0.0071331,0.0000000,0.0000000,0.0000000,0.0515897,0.0000000,0.0000000,0.0071331,0.0071331,0.0000000,0.0000000,0.0019783,0.0000000,0.0000000,0.0000000,0.0071331,0.0000000,0.0000000,0.0019783,0.0000000,0.0000000,0.0000000,0.0071331,0.0000000,0.0000000,0.0019783
34.9169020,0.9992000,,-0.9872450,-0.1591720,-0.0032057,0.0011790,-0.0085596,-0.0077396,-0.0044425,,,,1.0625913,-7.1737185,-21.3503399,0.0000000,0.0000000,0.0000000,0.0199840,0.0518748,0.0000000,0.0000000,0.0071726,0.0000000,0.0000000,0.0000000,0.0518748,0.0000000,0.0000000,0.0071726,0.0000000,0.0000000,0.0000000,0.0518748,0.0000000,0.0000000,0.0071726,0.0071726,0.0000000,0.0000000,0.0019837,0.0000000,0.0000000,0.0000000,0.0071726,0.0000000,0.0000000,0.0019837,0.0000000,0.0000000,0.0000000,0.0071726,0.0000000,0.0000000,0.0019837
34.9297210,1.2498500,,-0.9872451,-0.1591718,-0.0031527,0.0012340,-0.0097348,-0.0018633,-0.0095531,,,,1.0625913,-7.1737185,-21.3503399,0.0000000,0.0000000,0.0000000,0.0249970,0.0522334,0.0000000,0.0000000,0.0072223,0.0000000,0.0000000,0.0000000,0.0522334,0.0000000,0.0000000,0.0072223,0.0000000,0.0000000,0.0000000,0.0522334,0.0000000,0.0000000,0.0072223,0.0072223,0.0000000,0.0000000,0.0019906,0.0000000,0.0000000,0.0000000,0.0072223,0.0000000,0.0000000,0.0019906,0.0000000,0.0000000,0.0000000,0.0072223,0.0000000,0.0000000,0.0019906
34.9522930,1.0500000,,-0.9872452,-0.1591717,-0.0031045,0.0012636,-0.0095519,-0.0008706,-0.0072256,,,,1.0625913,-7.1737185,-21.3503399,0.0000000,0.0000000,0.0000000,0.0210000,0.0525367,0.0000000,0.0000000,0.0072642,0.0000000,0.0000000,0.0000000,0.0525367,0.0000000,0.0000000,0.0072642,0.0000000,0.0000000,0.0000000,0.0525367,0.0000000,0.0000000,0.0072642,0.0072642,0.0000000,0.0000000,0.0019964,0.0000000,0.0000000,0.0000000,0.0072642,0.0000000,0.0000000,0.0019964,0.0000000,0.0000000,0.0000000,0.0072642,0.0000000,0.0000000,0.0019964
34.9709630,1.0000000,,-0.9872454,-0.1591716,-0.0030419,0.0012785,-0.0091399,-0.0018238,-0.0060618,,,,1.0625913,-7.1737185,-21.3503399,0.0000000,0.0000000,0.0000000,0.0200000,0.0528273,0.0000000,0.0000000,0.0073041,0.0000000,0.0000000,0.0000000,0.0528273,0.0000000,0.0000000,0.0073041,0.0000000,0.0000000,0.0000000,0.0528273,0.0000000,0.0000000,0.0073041,0.0073041,0.0000000,0.0000000,0.0020019,0.0000000,0.0000000,0.0000000,0.0073041,0.0000000,0.0000000,0.0020019,0.0000000,0.0000000,0.0000000,0.0073041,0.0000000,0.0000000,0.0020019
34.9924110,,1.0000401,-0.9872456,-0.1591714,-0.0029695,0.0013139,,,,-0.0000000,-0.0000000,-0.0000000,1.0625913,-7.1737185,-21.3503399,0.0000000,0.0000000,0.0000000,0.1000040,0.0513818,0.0000000,0.0000000,0.0071043,0.0000000,0.0000000,0.0000000,0.0513818,0.0000000,0.0000000,0.0071043,0.0000000,0.0000000,0.0000000,0.0513818,0.0000000,0.0000000,0.0071043,0.0071043,0.0000000,0.0000000,0.0019742,0.0000000,0.0000000,0.0000000,0.0071043,0.0000000,0.0000000,0.0019742,0.0000000,0.0000000,0.0000000,0.0071043,0.0000000,0.0000000,0.0019742
35.0056680,1.0000000,,-0.9872456,-0.1591714,-0.0029695,0.0013139,-0.0164337,-0.0054056,-0.0008413,,,,1.0625913,-7.1737185,-21.3503399,0.0000000,0.0000000,0.0000000,0.0200000,0.0516659,0.0000000,0.0000000,0.0071438,0.0000000,0.0000000,0.0000000,0.0516659,0.0000000,0.0000000,0.0071438,0.0000000,0.0000000,0.0000000,0.0516659,0.0000000,0.0000000,0.0071438,0.0071438,0.0000000,0.0000000,0.0019797,0.0000000,0.0000000,0.0000000,0.0071438,0.0000000,0.0000000,0.0019797,0.0000000,0.0000000,0.0000000,0.0071438,0.0000000,0.0000000,0.0019797
35.0188880,1.4004500,,-0.9872457,-0.1591712,-0.0029130,0.0013648,-0.0071106,-0.0098134,-0.0040904,,,,1.0625913,-7.1737185,-21.3503399,0.0000000,0.0000000,0.0000000,0.0280090,0.0520661,0.0000000,0.0000000,0.0071993,0.0000000,0.0000000,0.0000000,0.0520661,0.0000000,0.0000000,0.0071993,0.0000000,0.0000000,0.0000000,0.0520661,0.0000000,0.0000000,0.0071993,0.0071993,0.0000000,0.0000000,0.0019874,0.0000000,0.0000000,0.0000000,0.0071993,0.0000000,0.0000000,0.0019874,0.0000000,0.0000000,0.0000000,0.0071993,0.0000000,0.0000000,0.0019874
35.0390170,1.0001501,,-0.9872459,-0.1591710,-0.0028468,0.0014063,-0.0070190,-0.0083094,0.0033183,,,,1.0625913,-7.1737185,-21.3503399,0.0000000,0.0000000,0.0000000,0.0200030,0.0523541,0.0000000,0.0000000,0.0072392,0.0000000,0.0000000,0.0000000,0.0523541,0.0000000,0.0000000,0.0072392,0.0000000,0.0000000,0.0000000,0.0523541,0.0000000,0.0000000,0.0072392,0.0072392,0.0000000,0.0000000,0.0019929,0.0000000,0.0000000,0.0000000,0.0072392,0.0000000,0.0000000,0.0019929,0.0000000,0.0000000,0.0000000,0.0072392,0.0000000,0.0000000,0.0019929
35.0603200,0.9994500,,-0.9872462,-0.1591709,-0.0027736,0.0014284,-0.0088425,-0.0058332,0.0033605,,,,1.0625913,-7.1737185,-21.3503399,0.0000000,0.0000000,0.0000000,0.0199890,0.0526435,0.0000000,0.0000000,0.0072790,0.0000000,0.0000000,0.0000000,0.0526435,0.0000000,0.0000000,0.0072790,0.0000000,0.0000000,0.0000000,0.0526435,0.0000000,0.0000000,0.0072790,0.0072790,0.0000000,0.0000000,0.0019984,0.0000000,0.0000000,0.0000000,0.0072790,0.0000000,0.0000000,0.0019984,0.0000000,0.0000000,0.0000000,0.0072790,0.0000000,0.0000000,0.0019984
35.0813930,1.0500000,,-0.9872463,-0.1591707,-0.0027079,0.0014738,-0.0033607,-0.0081809,0.0011843,,,,1.0625913,-7.1737185,-21.3503399,0.0000000,0.0000000,0.0000000,0.0210000,0.0529493,0.0000000,0.0000000,0.0073211,0.0000000,0.0000000,0.0000000,0.0529493,0.0000000,0.0000000,0.0073211,0.0000000,0.0000000,0.0000000,0.0529493,0.0000000,0.0000000,0.0073211,0.0073211,0.0000000,0.0000000,0.0020041,0.0000000,0.0000000,0.0000000,0.0073211,0.0000000,0.0000000,0.0020041,0.0000000,0.0000000,0.0000000,0.0073211,0.0000000,0.0000000,0.0020041
35.0970100,,1.0000199,-0.9872463,-0.1591707,-0.0027079,0.0015164,,,,-0.0000000,-0.0000000,-0.0000000,1.0625913,-7.1737185,-21.3503399,-0.0000000,-0.0000000,-0.0000000,0.1000020,0.0514971,0.0000000,0.0000000,0.0071203,0.0000000,0.0000000,0.0000000,0.0514971,0.0000000,0.0000000,0.0071203,0.0000000,0.0000000,0.0000000,0.0514971,0.0000000,0.0000000,0.0071203,0.0071203,0.0000000,0.0000000,0.0019764,0.0000000,0.0000000,0.0000000,0.0071203,0.0000000,0.0000000,0.0019764,0.0000000,0.0000000,0.0000000,0.0071203,0.0000000,0.0000000,0.0019764
35.1108320,1.0008500,,-0.9872463,-0.1591706,-0.0026730,0.0015164,-0.0050144,-0.0054103,-0.0074721,,,,1.0625913,-7.1737185,-21.3503399,0.0000000,0.0000000,0.0000000,0.0200170,0.0517822,0.0000000,0.0000000,0.0071599,0.0000000,0.0000000,0.0000000,0.0517822,0.0000000,0.0000000,0.0071599,0.0000000,0.0000000,0.0000000,0.0517822,0.0000000,0.0000000,0.0071599,0.0071599,0.0000000,0.0000000,0.0019819,0.0000000,0.0000000,0.0000000,0.0071599,0.0000000,0.0000000,0.0019819,0.0000000,0.0000000,0.0000000,0.0071599,0.0000000,0.0000000,0.0019819
35.1237980,1.1991000,,-0.9872464,-0.1591704,-0.0026241,0.0015739,-0.0040865,-0.0029646,-0.0010581,,,,1.0625913,-7.1737185,-21.3503399,0.0000000,0.0000000,0.0000000,0.0239820,0.0521256,0.0000000,0.0000000,0.0072075,0.0000000,0.0000000,0.0000000,0.0521256,0.0000000,0.0000000,0.0072075,0.0000000,0.0000000,0.0000000,0.0521256,0.0000000,0.0000000,0.0072075,0.0072075,0.0000000,0.0000000,0.0019884,0.0000000,0.0000000,0.0000000,0.0072075,0.0000000,0.0000000,0.0019884,0.0000000,0.0000000,0.0000000,0.0072075,0.0000000,0.0000000,0.0019884
35.1449130,1.0501001,,-0.9872465,-0.1591702,-0.0025698,0.0016000,0.0008330,-0.0027182,-0.0012691,,,,1.0625913,-7.1737185,-21.3503399,0.0000000,0.0000000,0.0000000,0.0210020,0.0524283,0.0000000,0.0000000,0.0072493,0.0000000,0.0000000,0.0000000,0.0524283,0.0000000,0.0000000,0.0072493,0.0000000,0.0000000,0.0000000,0.0524283,0.0000000,0.0000000,0.0072493,0.0072493,0.0000000,0.0000000,0.0019942,0.0000000,0.0000000,0.0000000,0.0072493,0.0000000,0.0000000,0.0019942,0.0000000,0.0000000,0.0000000,0.0072493,0.0000000,0.0000000,0.0019942
35.1659720,1.0500500,,-0.9872466,-0.1591701,-0.0025124,0.0016055,-0.0061677,-0.0033275,0.0088793,,,,1.0625913,-7.1737185,-21.3503399,0.0000000,0.0000000,0.0000000,0.0210010,0.0527328,0.0000000,0.0000000,0.0072913,0.0000000,0.0000000,0.0000000,0.0527328,0.0000000,0.0000000,0.0072913,0.0000000,0.0000000,0.0000000,0.0527328,0.0000000,0.0000000,0.0072913,0.0072913,0.0000000,0.0000000,0.0020000,0.0000000,0.0000000,0.0000000,0.0072913,0.0000000,0.0000000,0.0020000,0.0000000,0.0000000,0.0000000,0.0072913,0.0000000,0.0000000,0.0020000
35.1858670,1.0005500,,-0.9872468,-0.1591700,-0.0024782,0.0016218,-0.0052658,-0.0080038,0.0039437,,,,1.0625913,-7.1737185,-21.3503399,0.0000000,0.0000000,0.0000000,0.0200110,0.0530246,0.0000000,0.0000000,0.0073313,0.0000000,0.0000000,0.0000000,0.0530246,0.0000000,0.0000000,0.0073313,0.0000000,0.0000000,0.0000000,0.0530246,0.0000000,0.0000000,0.0073313,0.0073313,0.0000000,0.0000000,0.0020055,0.0000000,0.0000000,0.0000000,0.0073313,0.0000000,0.0000000,0.0020055,0.0000000,0.0000000,0.0000000,0.0073313,0.0000000,0.0000000,0.0020055
35.2029790,,1.0200900,-0.9872468,-0.1591700,-0.0024782,0.0016218,,,,-0.0000000,-0.0000000,-0.0000000,1.0625913,-7.1737185,-21.3503399,-0.0000000,-0.0000000,-0.0000000,0.1020090,0.0515684,0.0000000,0.0000000,0.0071300,0.0000000,0.0000000,0.0000000,0.0515684,0.0000000,0.0000000,0.0071300,0.0000000,0.0000000,0.0000000,0.0515684,0.0000000,0.0000000,0.0071300,0.0071300,0.0000000,0.0000000,0.0019776,0.0000000,0.0000000,0.0000000,0.0071300,0.0000000,0.0000000,0.0019776,0.0000000,0.0000000,0.0000000,0.0071300,0.0000000,0.0000000,0.0019776
35.2165470,1.0994500,,-0.9872469,-0.1591700,-0.0024184,0.0016243,-0.0110787,0.0028493,0.0004994,,,,1.0625913,-7.1737185,-21.3503399,0.0000000,0.0000000,0.0000000,0.0219890,0.0518820,0.0000000,0.0000000,0.0071735,0.0000000,0.0000000,0.0000000,0.0518820,0.0000000,0.0000000,0.0071735,0.0000000,0.0000000,0.0000000,0.0518820,0.0000000,0.0000000,0.0071735,0.0071735,0.0000000,0.0000000,0.0019837,0.0000000,0.0000000,0.0000000,0.0071735,0.0000000,0.0000000,0.0019837,0.0000000,0.0000000,0.0000000,0.0071735,0.0000000,0.0000000,0.0019837
35.2298190,1.0999500,,-0.9872470,-0.1591698,-0.0023663,0.0016506,-0.0097965,-0.0060750,0.0039042,,,,1.0625913,-7.1737185,-21.3503399,0.0000000,0.0000000,0.0000000,0.0219990,0.0521976,0.0000000,0.0000000,0.0072172,0.0000000,0.0000000,0.0000000,0.0521976,0.0000000,0.0000000,0.0072172,0.0000000,0.0000000,0.0000000,0.0521976,0.0000000,0.0000000,0.0072172,0.0072172,0.0000000,0.0000000,0.0019897,0.0000000,0.0000000,0.0000000,0.0072172,0.0000000,0.0000000,0.0019897,0.0000000,0.0000000,0.0000000,0.0072172,0.0000000,0.0000000,0.0019897
35.2498650,1.0002999,,-0.9872471,-0.1591697,-0.0023102,0.0016893,-0.0076372,-0.0053492,-0.0019618,,,,1.0625913,-7.1737185,-21.3503399,0.0000000,0.0000000,0.0000000,0.0200060,0.0524864,0.0000000,0.0000000,0.0072571,0.0000000,0.0000000,0.0000000,0.0524864,0.0000000,0.0000000,0.0072571,0.0000000,0.0000000,0.0000000,0.0524864,0.0000000,0.0000000,0.0072571,0.0072571,0.0000000,0.0000000,0.0019952,0.0000000,0.0000000,0.0000000,0.0072571,0.0000000,0.0000000,0.0019952,0.0000000,0.0000000,0.0000000,0.0072571,0.0000000,0.0000000,0.0019952
35.2713490,1.0004500,,-0.9872472,-0.1591696,-0.0022574,0.0016968,-0.0079690,-0.0045133,-0.0024534,,,,1.0625913,-7.1737185,-21.3503399,0.0000000,0.0000000,0.0000000,0.0200090,0.0527768,0.0000000,0.0000000,0.0072971,0.0000000,0.0000000,0.0000000,0.0527768,0.0000000,0.0000000,0.0072971,0.0000000,0.0000000,0.0000000,0.0527768,0.0000000,0.0000000,0.0072971,0.0072971,0.0000000,0.0000000,0.0020007,0.0000000,0.0000000,0.0000000,0.0072971,0.0000000,0.0000000,0.0020007,0.0000000,0.0000000,0.0000000,0.0072971,0.0000000,0.0000000,0.0020007
35.2900350,0.9994500,,-0.9872473,-0.1591695,-0.0022132,0.0017204,-0.0105534,-0.0079558,-0.0085585,,,,1.0625913,-7.1737185,-21.3503399,0.0000000,0.0000000,0.0000000,0.0199890,0.0530685,0.0000000,0.0000000,0.0073371,0.0000000,0.0000000,0.0000000,0.0530685,0.0000000,0.0000000,0.0073371,0.0000000,0.0000000,0.0000000,0.0530685,0.0000000,0.0000000,0.0073371,0.0073371,0.0000000,0.0000000,0.0020062,0.0000000,0.0000000,0.0000000,0.0073371,0.0000000,0.0000000,0.0020062,0.0000000,0.0000000,0.0000000,0.0073371,0.0000000,0.0000000,0.0020062
35.3060110,,0.9998400,-0.9872473,-0.1591695,-0.0022132,0.0017843,,,,-0.0000000,-0.0000000,-0.0000000,1.0625913,-7.1737185,-21.3503399,-0.0000000,-0.0000000,-0.0000000,0.0999840,0.0516099,0.0000000,0.0000000,0.0071355,0.0000000,0.0000000,0.0000000,0.0516099,0.0000000,0.0000000,0.0071355,0.0000000,0.0000000,0.0000000,0.0516099,0.0000000,0.0000000,0.0071355,0.0071355,0.0000000,0.0000000,0.0019783,0.0000000,0.0000000,0.0000000,0.0071355,0.0000000,0.0000000,0.0019783,0.0000000,0.0000000,0.0000000,0.0071355,0.0000000,0.0000000,0.0019783
35.3199430,1.0000501,,-0.9872473,-0.1591692,-0.0021542,0.0017843,-0.0015307,-0.0073654,-0.0050193,,,,1.0625913,-7.1737185,-21.3503399,0.0000000,0.0000000,0.0000000,0.0200010,0.0518953,0.0000000,0.0000000,0.0071751,0.0000000,0.0000000,0.0000000,0.0518953,0.0000000,0.0000000,0.0071751,0.0000000,0.0000000,0.0000000,0.0518953,0.0000000,0.0000000,0.0071751,0.0071751,0.0000000,0.0000000,0.0019838,0.0000000,0.0000000,0.0000000,0.0071751,0.0000000,0.0000000,0.0019838,0.0000000,0.0000000,0.0000000,0.0071751,0.0000000,0.0000000,0.0019838
35.3328250,1.1496500,,-0.9872475,-0.1591691,-0.0020960,0.0018229,-0.0008721,0.0002770,-0.0017772,,,,1.0625913,-7.1737185,-21.3503399,0.0000000,0.0000000,0.0000000,0.0229930,0.0522253,0.0000000,0.0000000,0.0072208,0.0000000,0.0000000,0.0000000,0.0522253,0.0000000,0.0000000,0.0072208,0.0000000,0.0000000,0.0000000,0.0522253,0.0000000,0.0000000,0.0072208,0.0072208,0.0000000,0.0000000,0.0019901,0.0000000,0.0000000,0.0000000,0.0072208,0.0000000,0.0000000,0.0019901,0.0000000,0.0000000,0.0000000,0.0072208,0.0000000,0.0000000,0.0019901
35.3527990,1.0003500,,-0.9872476,-0.1591690,-0.0020469,0.0018338,-0.0051358,-0.0015247,-0.0084570,,,,1.0625913,-7.1737185,-21.3503399,0.0000000,0.0000000,0.0000000,0.0200070,0.0525142,0.0000000,0.0000000,0.0072606,0.0000000,0.0000000,0.0000000,0.0525142,0.0000000,0.0000000,0.0072606,0.0000000,0.0000000,0.0000000,0.0525142,0.0000000,0.0000000,0.0072606,0.0072606,0.0000000,0.0000000,0.0019956,0.0000000,0.0000000,0.0000000,0.0072606,0.0000000,0.0000000,0.0019956,0.0000000,0.0000000,0.0000000,0.0072606,0.0000000,0.0000000,0.0019956
35.3740560,1.0504500,,-0.9872476,-0.1591689,-0.0020108,0.0018354,-0.0070006,-0.0036539,-0.0052051,,,,1.0625913,-7.1737185,-21.3503399,0.0000000,0.0000000,0.0000000,0.0210090,0.0528193,0.0000000,0.0000000,0.0073026,0.0000000,0.0000000,0.0000000,0.0528193,0.0000000,0.0000000,0.0073026,0.0000000,0.0000000,0.0000000,0.0528193,0.0000000,0.0000000,0.0073026,0.0073026,0.0000000,0.0000000,0.0020013,0.0000000,0.0000000,0.0000000,0.0073026,0.0000000,0.0000000,0.0020013,0.0000000,0.0000000,0.0000000,0.0073026,0.0000000,0.0000000,0.0020013
35.3954550,,1.0100501,-0.9872477,-0.1591688,-0.0019849,0.0018463,,,,-0.0000000,-0.0000000,-0.0000000,1.0625913,-7.1737185,-21.3503399,0.0000000,0.0000000,0.0000000,0.1010050,0.0513742,0.0000000,0.0000000,0.0071028,0.0000000,0.0000000,0.0000000,0.0513742,0.0000000,0.0000000,0.0071028,0.0000000,0.0000000,0.0000000,0.0513742,0.0000000,0.0000000,0.0071028,0.0071028,0.0000000,0.0000000,0.0019737,0.0000000,0.0000000,0.0000000,0.0071028,0.0000000,0.0000000,0.0019737,0.0000000,0.0000000,0.0000000,0.0071028,0.0000000,0.0000000,0.0019737
35.4089630,0.9996000,,-0.9872477,-0.1591688,-0.0019849,0.0018463,0.0001313,-0.0029866,-0.0057764,,,,1.0625913,-7.1737185,-21.3503399,0.0000000,0.0000000,0.0000000,0.0199920,0.0516582,0.0000000,0.0000000,0.0071423,0.0000000,0.0000000,0.0000000,0.0516582,0.0000000,0.0000000,0.0071423,0.0000000,0.0000000,0.0000000,0.0516582,0.0000000,0.0000000,0.0071423,0.0071423,0.0000000,0.0000000,0.0019792,0.0000000,0.0000000,0.0000000,0.0071423,0.0000000,0.0000000,0.0019792,0.0000000,0.0000000,0.0000000,0.0071423,0.0000000,0.0000000,0.0019792
35.4231960,1.3996000,,-0.9872477,-0.1591688,-0.0019458,0.0018581,-0.0047943,-0.0055598,-0.0070386,,,,1.0625913,-7.1737185,-21.3503399,0.0000000,0.0000000,0.0000000,0.0279920,0.0520580,0.0000000,0.0000000,0.0071978,0.0000000,0.0000000,0.0000000,0.0520580,0.0000000,0.0000000,0.0071978,0.0000000,0.0000000,0.0000000,0.0520580,0.0000000,0.0000000,0.0071978,0.0071978,0.0000000,0.0000000,0.0019869,0.0000000,0.0000000,0.0000000,0.0071978,0.0000000,0.0000000,0.0019869,0.0000000,0.0000000,0.0000000,0.0071978,0.0000000,0.0000000,0.0019869
35.4418500,1.0000000,,-0.9872478,-0.1591687,-0.0019001,0.0018800,-0.0047699,-0.0026578,-0.0086462,,,,1.0625913,-7.1737185,-21.3503399,0.0000000,0.0000000,0.0000000,0.0200000,0.0523460,0.0000000,0.0000000,0.0072376,0.0000000,0.0000000,0.0000000,0.0523460,0.0000000,0.0000000,0.0072376,0.0000000,0.0000000,0.0000000,0.0523460,0.0000000,0.0000000,0.0072376,0.0072376,0.0000000,0.0000000,0.0019924,0.0000000,0.0000000,0.0000000,0.0072376,0.0000000,0.0000000,0.0019924,0.0000000,0.0000000,0.0000000,0.0072376,0.0000000,0.0000000,0.0019924
35.4618260,1.0006500,,-0.9872478,-0.1591685,-0.0018674,0.0019208,-0.0018204,-0.0082259,-0.0038348,,,,1.0625913,-7.1737185,-21.3503399,0.0000000,0.0000000,0.0000000,0.0200130,0.0526357,0.0000000,0.0000000,0.0072775,0.0000000,0.0000000,0.0000000,0.0526357,0.0000000,0.0000000,0.0072775,0.0000000,0.0000000,0.0000000,0.0526357,0.0000000,0.0000000,0.0072775,0.0072775,0.0000000,0.0000000,0.0019979,0.0000000,0.0000000,0.0000000,0.0072775,0.0000000,0.0000000,0.0019979,0.0000000,0.0000000,0.0000000,0.0072775,0.0000000,0.0000000,0.0019979
35.4827760,1.0496000,,-0.9872478,-0.1591684,-0.0018533,0.0019493,-0.0067009,-0.0002525,-0.0031381,,,,1.0625913,-7.1737185,-21.3503399,0.0000000,0.0000000,0.0000000,0.0209920,0.0529412,0.0000000,0.0000000,0.0073195,0.0000000,0.0000000,0.0000000,0.0529412,0.0000000,0.0000000,0.0073195,0.0000000,0.0000000,0.0000000,0.0529412,0.0000000,0.0000000,0.0073195,0.0073195,0.0000000,0.0000000,0.0020036,0.0000000,0.0000000,0.0000000,0.0073195,0.0000000,0.0000000,0.0020036,0.0000000,0.0000000,0.0000000,0.0073195,0.0000000,0.0000000,0.0020036
35.4989520,,1.0200100,-0.9872478,-0.1591684,-0.0018533,0.0019493,,,,-0.0000000,-0.0000000,-0.0000000,1.0625913,-7.1737185,-21.3503399,-0.0000000,-0.0000000,-0.0000000,0.1020010,0.0514895,0.0000000,0.0000000,0.0071188,0.0000000,0.0000000,0.0000000,0.0514895,0.0000000,0.0000000,0.0071188,0.0000000,0.0000000,0.0000000,0.0514895,0.0000000,0.0000000,0.0071188,0.0071188,0.0000000,0.0000000,0.0019759,0.0000000,0.0000000,0.0000000,0.0071188,0.0000000,0.0000000,0.0019759,0.0000000,0.0000000,0.0000000,0.0071188,0.0000000,0.0000000,0.0019759
35.5126040,1.0998499,,-0.9872479,-0.1591684,-0.0018256,0.0019390,0.0011662,0.0027195,-0.0035222,,,,1.0625913,-7.1737185,-21.3503399,0.0000000,0.0000000,0.0000000,0.0219970,0.0518027,0.0000000,0.0000000,0.0071623,0.0000000,0.0000000,0.0000000,0.0518027,0.0000000,0.0000000,0.0071623,0.0000000,0.0000000,0.0000000,0.0518027,0.0000000,0.0000000,0.0071623,0.0071623,0.0000000,0.0000000,0.0019819,0.0000000,0.0000000,0.0000000,0.0071623,0.0000000,0.0000000,0.0019819,0.0000000,0.0000000,0.0000000,0.0071623,0.0000000,0.0000000,0.0019819
35.5257630,1.0499500,,-0.9872479,-0.1591683,-0.0017975,0.0019560,-0.0000120,-0.0016081,-0.0007845,,,,1.0625913,-7.1737185,-21.3503399,0.0000000,0.0000000,0.0000000,0.0209990,0.0521035,0.0000000,0.0000000,0.0072040,0.0000000,0.0000000,0.0000000,0.0521035,0.0000000,0.0000000,0.0072040,0.0000000,0.0000000,0.0000000,0.0521035,0.0000000,0.0000000,0.0072040,0.0072040,0.0000000,0.0000000,0.0019877,0.0000000,0.0000000,0.0000000,0.0072040,0.0000000,0.0000000,0.0019877,0.0000000,0.0000000,0.0000000,0.0072040,0.0000000,0.0000000,0.0019877
35.5456300,1.0000501,,-0.9872479,-0.1591682,-0.0017525,0.0019866,0.0048234,-0.0022536,-0.0011247,,,,1.0625913,-7.1737185,-21.3503399,0.0000000,0.0000000,0.0000000,0.0200010,0.0523917,0.0000000,0.0000000,0.0072438,0.0000000,0.0000000,0.0000000,0.0523917,0.0000000,0.0000000,0.0072438,0.0000000,0.0000000,0.0000000,0.0523917,0.0000000,0.0000000,0.0072438,0.0072438,0.0000000,0.0000000,0.0019932,0.0000000,0.0000000,0.0000000,0.0072438,0.0000000,0.0000000,0.0019932,0.0000000,0.0000000,0.0000000,0.0072438,0.0000000,0.0000000,0.0019932
35.5656770,1.0000000,,-0.9872479,-0.1591681,-0.0017247,0.0020088,0.0040825,-0.0054908,-0.0015389,,,,1.0625913,-7.1737185,-21.3503399,0.0000000,0.0000000,0.0000000,0.0200000,0.0526814,0.0000000,0.0000000,0.0072837,0.0000000,0.0000000,0.0000000,0.0526814,0.0000000,0.0000000,0.0072837,0.0000000,0.0000000,0.0000000,0.0526814,0.0000000,0.0000000,0.0072837,0.0072837,0.0000000,0.0000000,0.0019986,0.0000000,0.0000000,0.0000000,0.0072837,0.0000000,0.0000000,0.0019986,0.0000000,0.0000000,0.0000000,0.0072837,0.0000000,0.0000000,0.0019986
35.5869990,1.0500000,,-0.9872480,-0.1591680,-0.0016899,0.0020179,0.0047268,-0.0049122,0.0024044,,,,1.0625913,-7.1737185,-21.3503399,0.0000000,0.0000000,0.0000000,0.0210000,0.0529873,0.0000000,0.0000000,0.0073258,0.0000000,0.0000000,0.0000000,0.0529873,0.0000000,0.0000000,0.0073258,0.0000000,0.0000000,0.0000000,0.0529873,0.0000000,0.0000000,0.0073258,0.0073258,0.0000000,0.0000000,0.0020044,0.0000000,0.0000000,0.0000000,0.0073258,0.0000000,0.0000000,0.0020044,0.0000000,0.0000000,0.0000000,0.0073258,0.0000000,0.0000000,0.0020044
35.6044040,,0.9999700,-0.9872480,-0.1591680,-0.0016899,0.0020179,,,,-0.0000000,-0.0000000,-0.0000000,1.0625913,-7.1737185,-21.3503399,-0.0000000,-0.0000000,-0.0000000,0.0999970,0.0515331,0.0000000,0.0000000,0.0071247,0.0000000,0.0000000,0.0000000,0.0515331,0.0000000,0.0000000,0.0071247,0.0000000,0.0000000,0.0000000,0.0515331,0.0000000,0.0000000,0.0071247,0.0071247,0.0000000,0.0000000,0.0019766,0.0000000,0.0000000,0.0000000,0.0071247,0.0000000,0.0000000,0.0019766,0.0000000,0.0000000,0.0000000,0.0071247,0.0000000,0.0000000,0.0019766
35.6171520,1.1004000,,-0.9872480,-0.1591680,-0.0016724,0.0020363,0.0001585,-0.0084986,0.0055967,,,,1.0625913,-7.1737185,-21.3503399,0.0000000,0.0000000,0.0000000,0.0220080,0.0518467,0.0000000,0.0000000,0.0071683,0.0000000,0.0000000,0.0000000,0.0518467,0.0000000,0.0000000,0.0071683,0.0000000,0.0000000,0.0000000,0.0518467,0.0000000,0.0000000,0.0071683,0.0071683,0.0000000,0.0000000,0.0019827,0.0000000,0.0000000,0.0000000,0.0071683,0.0000000,0.0000000,0.0019827,0.0000000,0.0000000,0.0000000,0.0071683,0.0000000,0.0000000,0.0019827
35.6317300,1.1500500,,-0.9872480,-0.1591679,-0.0016388,0.0020727,-0.0028123,-0.0121839,0.0013335,,,,1.0625913,-7.1737185,-21.3503399,0.0000000,0.0000000,0.0000000,0.0230010,0.0521765,0.0000000,0.0000000,0.0072139,0.0000000,0.0000000,0.0000000,0.0521765,0.0000000,0.0000000,0.0072139,0.0000000,0.0000000,0.0000000,0.0521765,0.0000000,0.0000000,0.0072139,0.0072139,0.0000000,0.0000000,0.0019890,0.0000000,0.0000000,0.0000000,0.0072139,0.0000000,0.0000000,0.0019890,0.0000000,0.0000000,0.0000000,0.0072139,0.0000000,0.0000000,0.0019890
35.6519410,0.9996000,,-0.9872481,-0.1591678,-0.0016069,0.0020962,-0.0047631,-0.0086401,0.0033523,,,,1.0625913,-7.1737185,-21.3503399,0.0000000,0.0000000,0.0000000,0.0199920,0.0524649,0.0000000,0.0000000,0.0072538,0.0000000,0.0000000,0.0000000,0.0524649,0.0000000,0.0000000,0.0072538,0.0000000,0.0000000,0.0000000,0.0524649,0.0000000,0.0000000,0.0072538,0.0072538,0.0000000,0.0000000,0.0019945,0.0000000,0.0000000,0.0000000,0.0072538,0.0000000,0.0000000,0.0019945,0.0000000,0.0000000,0.0000000,0.0072538,0.0000000,0.0000000,0.0019945
35.6717760,1.0003999,,-0.9872481,-0.1591676,-0.0015763,0.0021225,-0.0013134,-0.0061053,0.0024086,,,,1.0625913,-7.1737185,-21.3503399,0.0000000,0.0000000,0.0000000,0.0200080,0.0527552,0.0000000,0.0000000,0.0072937,0.0000000,0.0000000,0.0000000,0.0527552,0.0000000,0.0000000,0.0072937,0.0000000,0.0000000,0.0000000,0.0527552,0.0000000,0.0000000,0.0072937,0.0072937,0.0000000,0.0000000,0.0019999,0.0000000,0.0000000,0.0000000,0.0072937,0.0000000,0.0000000,0.0019999,0.0000000,0.0000000,0.0000000,0.0072937,0.0000000,0.0000000,0.0019999
35.6927520,1.0496000,,-0.9872481,-0.1591674,-0.0015204,0.0021730,-0.0066000,-0.0025491,0.0038898,,,,1.0625913,-7.1737185,-21.3503399,0.0000000,0.0000000,0.0000000,0.0209920,0.0530614,0.0000000,0.0000000,0.0073358,0.0000000,0.0000000,0.0000000,0.0530614,0.0000000,0.0000000,0.0073358,0.0000000,0.0000000,0.0000000,0.0530614,0.0000000,0.0000000,0.0073358,0.0073358,0.0000000,0.0000000,0.0020057,0.0000000,0.0000000,0.0000000,0.0073358,0.0000000,0.0000000,0.0020057,0.0000000,0.0000000,0.0000000,0.0073358,0.0000000,0.0000000,0.0020057
35.7089770,,1.0200100,-0.9872481,-0.1591674,-0.0015204,0.0021730,,,,-0.0000000,-0.0000000,-0.0000000,1.0625913,-7.1737185,-21.3503399,-0.0000000,-0.0000000,-0.0000000,0.1020010,0.0516032,0.0000000,0.0000000,0.0071342,0.0000000,0.0000000,0.0000000,0.0516032,0.0000000,0.0000000,0.0071342,0.0000000,0.0000000,0.0000000,0.0516032,0.0000000,0.0000000,0.0071342,0.0071342,0.0000000,0.0000000,0.0019778,0.0000000,0.0000000,0.0000000,0.0071342,0.0000000,0.0000000,0.0019778,0.0000000,0.0000000,0.0000000,0.0071342,0.0000000,0.0000000,0.0019778
35.7226580,1.0999500,,-0.9872481,-0.1591673,-0.0014875,0.0022002,-0.0028880,-0.0022359,0.0036539,,,,1.0625913,-7.1737185,-21.3503399,0.0000000,0.0000000,0.0000000,0.0219990,0.0519171,0.0000000,0.0000000,0.0071777,0.0000000,0.0000000,0.0000000,0.0519171,0.0000000,0.0000000,0.0071777,0.0000000,0.0000000,0.0000000,0.0519171,0.0000000,0.0000000,0.0071777,0.0071777,0.0000000,0.0000000,0.0019839,0.0000000,0.0000000,0.0000000,0.0071777,0.0000000,0.0000000,0.0019839,0.0000000,0.0000000,0.0000000,0.0071777,0.0000000,0.0000000,0.0019839
35.7359160,1.0499500,,-0.9872481,-0.1591673,-0.0014826,0.0022044,-0.0017873,0.0000951,0.0032918,,,,1.0625913,-7.1737185,-21.3503399,0.0000000,0.0000000,0.0000000,0.0209990,0.0522185,0.0000000,0.0000000,0.0072194,0.0000000,0.0000000,0.0000000,0.0522185,0.0000000,0.0000000,0.0072194,0.0000000,0.0000000,0.0000000,0.0522185,0.0000000,0.0000000,0.0072194,0.0072194,0.0000000,0.0000000,0.0019896,0.0000000,0.0000000,0.0000000,0.0072194,0.0000000,0.0000000,0.0019896,0.0000000,0.0000000,0.0000000,0.0072194,0.0000000,0.0000000,0.0019896
35.7559490,1.0002999,,-0.9872481,-0.1591673,-0.0014744,0.0022139,-0.0056239,-0.0004255,-0.0051900,,,,1.0625913,-7.1737185,-21.3503399,0.0000000,0.0000000,0.0000000,0.0200060,0.0525074,0.0000000,0.0000000,0.0072593,0.0000000,0.0000000,0.0000000,0.0525074,0.0000000,0.0000000,0.0072593,0.0000000,0.0000000,0.0000000,0.0525074,0.0000000,0.0000000,0.0072593,0.0072593,0.0000000,0.0000000,0.0019951,0.0000000,0.0000000,0.0000000,0.0072593,0.0000000,0.0000000,0.0019951,0.0000000,0.0000000,0.0000000,0.0072593,0.0000000,0.0000000,0.0019951
35.7758220,1.0004500,,-0.9872481,-0.1591672,-0.0014583,0.0022405,-0.0072751,0.0018014,-0.0116282,,,,1.0625913,-7.1737185,-21.3503399,0.0000000,0.0000000,0.0000000,0.0200090,0.0527979,0.0000000,0.0000000,0.0072993,0.0000000,0.0000000,0.0000000,0.0527979,0.0000000,0.0000000,0.0072993,0.0000000,0.0000000,0.0000000,0.0527979,0.0000000,0.0000000,0.0072993,0.0072993,0.0000000,0.0000000,0.0020006,0.0000000,0.0000000,0.0000000,0.0072993,0.0000000,0.0000000,0.0020006,0.0000000,0.0000000,0.0000000,0.0072993,0.0000000,0.0000000,0.0020006
35.8005240,,1.0099601,-0.9872479,-0.1591671,-0.0014353,0.0022870,,,,-0.0000000,-0.0000000,-0.0000000,1.0625913,-7.1737185,-21.3503399,0.0000000,0.0000000,0.0000000,0.1009960,0.0513539,0.0000000,0.0000000,0.0070997,0.0000000,0.0000000,0.0000000,0.0513539,0.0000000,0.0000000,0.0070997,0.0000000,0.0000000,0.0000000,0.0513539,0.0000000,0.0000000,0.0070997,0.0070997,0.0000000,0.0000000,0.0019730,0.0000000,0.0000000,0.0000000,0.0070997,0.0000000,0.0000000,0.0019730,0.0000000,0.0000000,0.0000000,0.0070997,0.0000000,0.0000000,0.0019730
35.8137560,1.0996000,,-0.9872479,-0.1591671,-0.0014353,0.0022870,-0.0034468,-0.0040965,-0.0116735,,,,1.0625913,-7.1737185,-21.3503399,0.0000000,0.0000000,0.0000000,0.0219920,0.0516662,0.0000000,0.0000000,0.0071431,0.0000000,0.0000000,0.0000000,0.0516662,0.0000000,0.0000000,0.0071431,0.0000000,0.0000000,0.0000000,0.0516662,0.0000000,0.0000000,0.0071431,0.0071431,0.0000000,0.0000000,0.0019791,0.0000000,0.0000000,0.0000000,0.0071431,0.0000000,0.0000000,0.0019791,0.0000000,0.0000000,0.0000000,0.0071431,0.0000000,0.0000000,0.0019791
35.8270280,1.4496500,,-0.9872479,-0.1591670,-0.0013988,0.0023141,-0.0046607,-0.0009267,-0.0102313,,,,1.0625913,-7.1737185,-21.3503399,0.0000000,0.0000000,0.0000000,0.0289930,0.0520804,0.0000000,0.0000000,0.0072006,0.0000000,0.0000000,0.0000000,0.0520804,0.0000000,0.0000000,0.0072006,0.0000000,0.0000000,0.0000000,0.0520804,0.0000000,0.0000000,0.0072006,0.0072006,0.0000000,0.0000000,0.0019870,0.0000000,0.0000000,0.0000000,0.0072006,0.0000000,0.0000000,0.0019870,0.0000000,0.0000000,0.0000000,0.0072006,0.0000000,0.0000000,0.0019870
35.8482430,1.0002501,,-0.9872479,-0.1591669,-0.0013721,0.0023355,-0.0015903,0.0009175,-0.0158578,,,,1.0625913,-7.1737185,-21.3503399,0.0000000,0.0000000,0.0000000,0.0200050,0.0523685,0.0000000,0.0000000,0.0072404,0.0000000,0.0000000,0.0000000,0.0523685,0.0000000,0.0000000,0.0072404,0.0000000,0.0000000,0.0000000,0.0523685,0.0000000,0.0000000,0.0072404,0.0072404,0.0000000,0.0000000,0.0019925,0.0000000,0.0000000,0.0000000,0.0072404,0.0000000,0.0000000,0.0019925,0.0000000,0.0000000,0.0000000,0.0072404,0.0000000,0.0000000,0.0019925
35.8669480,0.9997500,,-0.9872479,-0.1591668,-0.0013588,0.0023712,-0.0064104,-0.0017690,-0.0057316,,,,1.0625913,-7.1737185,-21.3503399,0.0000000,0.0000000,0.0000000,0.0199950,0.0526581,0.0000000,0.0000000,0.0072803,0.0000000,0.0000000,0.0000000,0.0526581,0.0000000,0.0000000,0.0072803,0.0000000,0.0000000,0.0000000,0.0526581,0.0000000,0.0000000,0.0072803,0.0072803,0.0000000,0.0000000,0.0019980,0.0000000,0.0000000,0.0000000,0.0072803,0.0000000,0.0000000,0.0019980,0.0000000,0.0000000,0.0000000,0.0072803,0.0000000,0.0000000,0.0019980
