t,predict_cpu,update_cpu,quat_x,quat_y,quat_z,quat_w,accel_x,accel_y,accel_z,of_x,of_y,of_z,x_x,x_y,x_z,x_vx,x_vy,x_vz,dt,P_0,P_1,P_2,P_3,P_4,P_5,P_6,P_7,P_8,P_9,P_10,P_11,P_12,P_13,P_14,P_15,P_16,P_17,P_18,P_19,P_20,P_21,P_22,P_23,P_24,P_25,P_26,P_27,P_28,P_29,P_30,P_31,P_32,P_33,P_34,P_35
130.1215570,1.0007000,,-0.9665020,-0.2566463,0.0000178,0.0025733,0.0024757,0.0052256,-0.0014693,,,,1.0683104,-4.1310539,-10.7572956,0.0000000,0.0000000,0.0000000,0.0200140,0.0002018,0.0000000,0.0000000,0.0000202,0.0000000,0.0000000,0.0000000,0.0002018,0.0000000,0.0000000,0.0000202,0.0000000,0.0000000,0.0000000,0.0002018,0.0000000,0.0000000,0.0000202,0.0000202,0.0000000,0.0000000,0.0000040,0.0000000,0.0000000,0.0000000,0.0000202,0.0000000,0.0000000,0.0000040,0.0000000,0.0000000,0.0000000,0.0000202,0.0000000,0.0000000,0.0000040
130.1424930,1.0495000,,-0.9665020,-0.2566463,0.0000257,0.0025643,0.0067234,0.0016744,0.0012185,,,,1.0683104,-4.1310539,-10.7572956,0.0000000,0.0000000,0.0000000,0.0209900,0.0002027,0.0000000,0.0000000,0.0000202,0.0000000,0.0000000,0.0000000,0.0002027,0.0000000,0.0000000,0.0000202,0.0000000,0.0000000,0.0000000,0.0002027,0.0000000,0.0000000,0.0000202,0.0000202,0.0000000,0.0000000,0.0000040,0.0000000,0.0000000,0.0000000,0.0000202,0.0000000,0.0000000,0.0000040,0.0000000,0.0000000,0.0000000,0.0000202,0.0000000,0.0000000,0.0000040
130.1640000,1.0498999,,-0.9665020,-0.2566463,0.0000338,0.0025623,-0.0009108,-0.0079061,0.0013417,,,,1.0683104,-4.1310539,-10.7572956,0.0000000,0.0000000,0.0000000,0.0209980,0.0002035,0.0000000,0.0000000,0.0000203,0.0000000,0.0000000,0.0000000,0.0002035,0.0000000,0.0000000,0.0000203,0.0000000,0.0000000,0.0000000,0.0002035,0.0000000,0.0000000,0.0000203,0.0000203,0.0000000,0.0000000,0.0000040,0.0000000,0.0000000,0.0000000,0.0000203,0.0000000,0.0000000,0.0000040,0.0000000,0.0000000,0.0000000,0.0000203,0.0000000,0.0000000,0.0000040
130.1808420,,1.0200000,-0.9665020,-0.2566463,0.0000338,0.0025653,,,,0.0000000,0.0000000,0.0000000,1.0683104,-4.1310539,-10.7572956,0.0000000,0.0000000,0.0000000,0.1020000,0.0001995,0.0000000,0.0000000,0.0000199,0.0000000,0.0000000,0.0000000,0.0001995,0.0000000,0.0000000,0.0000199,0.0000000,0.0000000,0.0000000,0.0001995,0.0000000,0.0000000,0.0000199,0.0000199,0.0000000,0.0000000,0.0000040,0.0000000,0.0000000,0.0000000,0.0000199,0.0000000,0.0000000,0.0000040,0.0000000,0.0000000,0.0000000,0.0000199,0.0000000,0.0000000,0.0000040
130.1946480,1.0002000,,-0.9665020,-0.2566462,0.0000580,0.0025653,-0.0027366,-0.0070582,-0.0007940,,,,1.0683104,-4.1310539,-10.7572956,0.0000000,0.0000000,0.0000000,0.0200040,0.0002003,0.0000000,0.0000000,0.0000200,0.0000000,0.0000000,0.0000000,0.0002003,0.0000000,0.0000000,0.0000200,0.0000000,0.0000000,0.0000000,0.0002003,0.0000000,0.0000000,0.0000200,0.0000200,0.0000000,0.0000000,0.0000040,0.0000000,0.0000000,0.0000000,0.0000200,0.0000000,0.0000000,0.0000040,0.0000000,0.0000000,0.0000000,0.0000200,0.0000000,0.0000000,0.0000040
130.2074790,1.1997001,,-0.9665020,-0.2566462,0.0000832,0.0025848,-0.0055873,-0.0009809,-0.0025943,,,,1.0683104,-4.1310539,-10.7572956,0.0000000,0.0000000,0.0000000,0.0239940,0.0002012,0.0000000,0.0000000,0.0000201,0.0000000,0.0000000,0.0000000,0.0002012,0.0000000,0.0000000,0.0000201,0.0000000,0.0000000,0.0000000,0.0002012,0.0000000,0.0000000,0.0000201,0.0000201,0.0000000,0.0000000,0.0000040,0.0000000,0.0000000,0.0000000,0.0000201,0.0000000,0.0000000,0.0000040,0.0000000,0.0000000,0.0000000,0.0000201,0.0000000,0.0000000,0.0000040
130.2287120,1.0503500,,-0.9665020,-0.2566461,0.0001045,0.0025968,-0.0006498,-0.0006201,-0.0022737,,,,1.0683104,-4.1310539,-10.7572956,0.0000000,0.0000000,0.0000000,0.0210070,0.0002021,0.0000000,0.0000000,0.0000202,0.0000000,0.0000000,0.0000000,0.0002021,0.0000000,0.0000000,0.0000202,0.0000000,0.0000000,0.0000000,0.0002021,0.0000000,0.0000000,0.0000202,0.0000202,0.0000000,0.0000000,0.0000040,0.0000000,0.0000000,0.0000000,0.0000202,0.0000000,0.0000000,0.0000040,0.0000000,0.0000000,0.0000000,0.0000202,0.0000000,0.0000000,0.0000040
130.2510650,1.0497501,,-0.9665018,-0.2566461,0.0001119,0.0026297,0.0003312,-0.0038043,0.0003280,,,,1.0683104,-4.1310539,-10.7572956,0.0000000,0.0000000,0.0000000,0.0209950,0.0002029,0.0000000,0.0000000,0.0000203,0.0000000,0.0000000,0.0000000,0.0002029,0.0000000,0.0000000,0.0000203,0.0000000,0.0000000,0.0000000,0.0002029,0.0000000,0.0000000,0.0000203,0.0000203,0.0000000,0.0000000,0.0000040,0.0000000,0.0000000,0.0000000,0.0000203,0.0000000,0.0000000,0.0000040,0.0000000,0.0000000,0.0000000,0.0000203,0.0000000,0.0000000,0.0000040
130.2696370,1.0000000,,-0.9665017,-0.2566461,0.0001075,0.0026650,0.0010430,-0.0031686,-0.0003243,,,,1.0683104,-4.1310539,-10.7572956,0.0000000,0.0000000,0.0000000,0.0200000,0.0002037,0.0000000,0.0000000,0.0000203,0.0000000,0.0000000,0.0000000,0.0002037,0.0000000,0.0000000,0.0000203,0.0000000,0.0000000,0.0000000,0.0002037,0.0000000,0.0000000,0.0000203,0.0000203,0.0000000,0.0000000,0.0000040,0.0000000,0.0000000,0.0000000,0.0000203,0.0000000,0.0000000,0.0000040,0.0000000,0.0000000,0.0000000,0.0000203,0.0000000,0.0000000,0.0000040
130.2855580,,1.0000499,-0.9665017,-0.2566461,0.0001075,0.0026650,,,,0.0000000,0.0000000,0.0000000,1.0683104,-4.1310539,-10.7572956,0.0000000,0.0000000,0.0000000,0.1000050,0.0001997,0.0000000,0.0000000,0.0000199,0.0000000,0.0000000,0.0000000,0.0001997,0.0000000,0.0000000,0.0000199,0.0000000,0.0000000,0.0000000,0.0001997,0.0000000,0.0000000,0.0000199,0.0000199,0.0000000,0.0000000,0.0000040,0.0000000,0.0000000,0.0000000,0.0000199,0.0000000,0.0000000,0.0000040,0.0000000,0.0000000,0.0000000,0.0000199,0.0000000,0.0000000,0.0000040
130.2995670,0.9999500,,-0.9665017,-0.2566460,0.0001152,0.0026773,-0.0022403,-0.0006612,0.0003261,,,,1.0683104,-4.1310539,-10.7572956,0.0000000,0.0000000,0.0000000,0.0199990,0.0002005,0.0000000,0.0000000,0.0000200,0.0000000,0.0000000,0.0000000,0.0002005,0.0000000,0.0000000,0.0000200,0.0000000,0.0000000,0.0000000,0.0002005,0.0000000,0.0000000,0.0000200,0.0000200,0.0000000,0.0000000,0.0000040,0.0000000,0.0000000,0.0000000,0.0000200,0.0000000,0.0000000,0.0000040,0.0000000,0.0000000,0.0000000,0.0000200,0.0000000,0.0000000,0.0000040
130.3124750,1.1499500,,-0.9665018,-0.2566460,0.0001471,0.0026694,-0.0033327,-0.0003916,-0.0017901,,,,1.0683104,-4.1310539,-10.7572956,0.0000000,0.0000000,0.0000000,0.0229990,0.0002014,0.0000000,0.0000000,0.0000201,0.0000000,0.0000000,0.0000000,0.0002014,0.0000000,0.0000000,0.0000201,0.0000000,0.0000000,0.0000000,0.0002014,0.0000000,0.0000000,0.0000201,0.0000201,0.0000000,0.0000000,0.0000040,0.0000000,0.0000000,0.0000000,0.0000201,0.0000000,0.0000000,0.0000040,0.0000000,0.0000000,0.0000000,0.0000201,0.0000000,0.0000000,0.0000040
130.3337960,1.0502501,,-0.9665018,-0.2566460,0.0001531,0.0026723,0.0034225,0.0021922,-0.0016274,,,,1.0683104,-4.1310539,-10.7572956,0.0000000,0.0000000,0.0000000,0.0210050,0.0002022,0.0000000,0.0000000,0.0000202,0.0000000,0.0000000,0.0000000,0.0002022,0.0000000,0.0000000,0.0000202,0.0000000,0.0000000,0.0000000,0.0002022,0.0000000,0.0000000,0.0000202,0.0000202,0.0000000,0.0000000,0.0000040,0.0000000,0.0000000,0.0000000,0.0000202,0.0000000,0.0000000,0.0000040,0.0000000,0.0000000,0.0000000,0.0000202,0.0000000,0.0000000,0.0000040
130.3550110,1.0498501,,-0.9665018,-0.2566459,0.0001629,0.0026574,0.0036415,0.0044301,-0.0003254,,,,1.0683104,-4.1310539,-10.7572956,0.0000000,0.0000000,0.0000000,0.0209970,0.0002031,0.0000000,0.0000000,0.0000203,0.0000000,0.0000000,0.0000000,0.0002031,0.0000000,0.0000000,0.0000203,0.0000000,0.0000000,0.0000000,0.0002031,0.0000000,0.0000000,0.0000203,0.0000203,0.0000000,0.0000000,0.0000040,0.0000000,0.0000000,0.0000000,0.0000203,0.0000000,0.0000000,0.0000040,0.0000000,0.0000000,0.0000000,0.0000203,0.0000000,0.0000000,0.0000040
130.3753210,,1.0099300,-0.9665018,-0.2566459,0.0001632,0.0026504,,,,0.0000000,0.0000000,0.0000000,1.0683104,-4.1310539,-10.7572956,0.0000000,0.0000000,0.0000000,0.1009930,0.0001990,0.0000000,0.0000000,0.0000199,0.0000000,0.0000000,0.0000000,0.0001990,0.0000000,0.0000000,0.0000199,0.0000000,0.0000000,0.0000000,0.0001990,0.0000000,0.0000000,0.0000199,0.0000199,0.0000000,0.0000000,0.0000040,0.0000000,0.0000000,0.0000000,0.0000199,0.0000000,0.0000000,0.0000040,0.0000000,0.0000000,0.0000000,0.0000199,0.0000000,0.0000000,0.0000040
130.3886340,1.0002501,,-0.9665018,-0.2566459,0.0001632,0.0026504,0.0054523,0.0053050,0.0008138,,,,1.0683104,-4.1310539,-10.7572956,0.0000000,0.0000000,0.0000000,0.0200050,0.0001998,0.0000000,0.0000000,0.0000200,0.0000000,0.0000000,0.0000000,0.0001998,0.0000000,0.0000000,0.0000200,0.0000000,0.0000000,0.0000000,0.0001998,0.0000000,0.0000000,0.0000200,0.0000200,0.0000000,0.0000000,0.0000040,0.0000000,0.0000000,0.0000000,0.0000200,0.0000000,0.0000000,0.0000040,0.0000000,0.0000000,0.0000000,0.0000200,0.0000000,0.0000000,0.0000040
130.4017210,1.3496001,,-0.9665019,-0.2566459,0.0001754,0.0026356,0.0051676,0.0057271,-0.0030110,,,,1.0683104,-4.1310539,-10.7572956,0.0000000,0.0000000,0.0000000,0.0269920,0.0002009,0.0000000,0.0000000,0.0000201,0.0000000,0.0000000,0.0000000,0.0002009,0.0000000,0.0000000,0.0000201,0.0000000,0.0000000,0.0000000,0.0002009,0.0000000,0.0000000,0.0000201,0.0000201,0.0000000,0.0000000,0.0000040,0.0000000,0.0000000,0.0000000,0.0000201,0.0000000,0.0000000,0.0000040,0.0000000,0.0000000,0.0000000,0.0000201,0.0000000,0.0000000,0.0000040
130.4230690,1.0004500,,-0.9665020,-0.2566459,0.0001914,0.0026315,0.0060170,0.0039927,0.0048421,,,,1.0683104,-4.1310539,-10.7572956,0.0000000,0.0000000,0.0000000,0.0200090,0.0002017,0.0000000,0.0000000,0.0000201,0.0000000,0.0000000,0.0000000,0.0002017,0.0000000,0.0000000,0.0000201,0.0000000,0.0000000,0.0000000,0.0002017,0.0000000,0.0000000,0.0000201,0.0000201,0.0000000,0.0000000,0.0000040,0.0000000,0.0000000,0.0000000,0.0000201,0.0000000,0.0000000,0.0000040,0.0000000,0.0000000,0.0000000,0.0000201,0.0000000,0.0000000,0.0000040
130.4415890,1.0001501,,-0.9665020,-0.2566459,0.0001990,0.0026324,0.0093714,-0.0056559,0.0043742,,,,1.0683104,-4.1310539,-10.7572956,0.0000000,0.0000000,0.0000000,0.0200030,0.0002025,0.0000000,0.0000000,0.0000202,0.0000000,0.0000000,0.0000000,0.0002025,0.0000000,0.0000000,0.0000202,0.0000000,0.0000000,0.0000000,0.0002025,0.0000000,0.0000000,0.0000202,0.0000202,0.0000000,0.0000000,0.0000040,0.0000000,0.0000000,0.0000000,0.0000202,0.0000000,0.0000000,0.0000040,0.0000000,0.0000000,0.0000000,0.0000202,0.0000000,0.0000000,0.0000040
130.4618540,0.9996000,,-0.9665020,-0.2566458,0.0002099,0.0026365,0.0066694,-0.0014394,0.0019430,,,,1.0683104,-4.1310539,-10.7572956,0.0000000,0.0000000,0.0000000,0.0199920,0.0002033,0.0000000,0.0000000,0.0000203,0.0000000,0.0000000,0.0000000,0.0002033,0.0000000,0.0000000,0.0000203,0.0000000,0.0000000,0.0000000,0.0002033,0.0000000,0.0000000,0.0000203,0.0000203,0.0000000,0.0000000,0.0000040,0.0000000,0.0000000,0.0000000,0.0000203,0.0000000,0.0000000,0.0000040,0.0000000,0.0000000,0.0000000,0.0000203,0.0000000,0.0000000,0.0000040
130.4775220,,1.0000100,-0.9665020,-0.2566458,0.0002099,0.0026365,,,,0.0000000,0.0000000,0.0000000,1.0683104,-4.1310539,-10.7572956,0.0000000,0.0000000,0.0000000,0.1000010,0.0001993,0.0000000,0.0000000,0.0000199,0.0000000,0.0000000,0.0000000,0.0001993,0.0000000,0.0000000,0.0000199,0.0000000,0.0000000,0.0000000,0.0001993,0.0000000,0.0000000,0.0000199,0.0000199,0.0000000,0.0000000,0.0000040,0.0000000,0.0000000,0.0000000,0.0000199,0.0000000,0.0000000,0.0000040,0.0000000,0.0000000,0.0000000,0.0000199,0.0000000,0.0000000,0.0000040
130.4914710,1.0001501,,-0.9665020,-0.2566459,0.0002018,0.0026413,-0.0005716,0.0011571,0.0026805,,,,1.0683104,-4.1310539,-10.7572956,0.0000000,0.0000000,0.0000000,0.0200030,0.0002001,0.0000000,0.0000000,0.0000200,0.0000000,0.0000000,0.0000000,0.0002001,0.0000000,0.0000000,0.0000200,0.0000000,0.0000000,0.0000000,0.0002001,0.0000000,0.0000000,0.0000200,0.0000200,0.0000000,0.0000000,0.0000040,0.0000000,0.0000000,0.0000000,0.0000200,0.0000000,0.0000000,0.0000040,0.0000000,0.0000000,0.0000000,0.0000200,0.0000000,0.0000000,0.0000040
130.5046150,1.1497501,,-0.9665019,-0.2566458,0.0002330,0.0026561,-0.0060841,-0.0077527,-0.0006129,,,,1.0683104,-4.1310539,-10.7572956,0.0000000,0.0000000,0.0000000,0.0229950,0.0002010,0.0000000,0.0000000,0.0000201,0.0000000,0.0000000,0.0000000,0.0002010,0.0000000,0.0000000,0.0000201,0.0000000,0.0000000,0.0000000,0.0002010,0.0000000,0.0000000,0.0000201,0.0000201,0.0000000,0.0000000,0.0000040,0.0000000,0.0000000,0.0000000,0.0000201,0.0000000,0.0000000,0.0000040,0.0000000,0.0000000,0.0000000,0.0000201,0.0000000,0.0000000,0.0000040
130.5259600,1.0501500,,-0.9665019,-0.2566457,0.0002546,0.0026541,-0.0049189,-0.0024573,-0.0007947,,,,1.0683104,-4.1310539,-10.7572956,0.0000000,0.0000000,0.0000000,0.0210030,0.0002018,0.0000000,0.0000000,0.0000202,0.0000000,0.0000000,0.0000000,0.0002018,0.0000000,0.0000000,0.0000202,0.0000000,0.0000000,0.0000000,0.0002018,0.0000000,0.0000000,0.0000202,0.0000202,0.0000000,0.0000000,0.0000040,0.0000000,0.0000000,0.0000000,0.0000202,0.0000000,0.0000000,0.0000040,0.0000000,0.0000000,0.0000000,0.0000202,0.0000000,0.0000000,0.0000040
130.5457530,1.0002000,,-0.9665018,-0.2566457,0.0002491,0.0026583,0.0019809,-0.0007861,-0.0069892,,,,1.0683104,-4.1310539,-10.7572956,0.0000000,0.0000000,0.0000000,0.0200040,0.0002026,0.0000000,0.0000000,0.0000202,0.0000000,0.0000000,0.0000000,0.0002026,0.0000000,0.0000000,0.0000202,0.0000000,0.0000000,0.0000000,0.0002026,0.0000000,0.0000000,0.0000202,0.0000202,0.0000000,0.0000000,0.0000040,0.0000000,0.0000000,0.0000000,0.0000202,0.0000000,0.0000000,0.0000040,0.0000000,0.0000000,0.0000000,0.0000202,0.0000000,0.0000000,0.0000040
130.5658780,0.9998500,,-0.9665018,-0.2566457,0.0002503,0.0026484,-0.0018782,0.0027121,-0.0017856,,,,1.0683104,-4.1310539,-10.7572956,0.0000000,0.0000000,0.0000000,0.0199970,0.0002034,0.0000000,0.0000000,0.0000203,0.0000000,0.0000000,0.0000000,0.0002034,0.0000000,0.0000000,0.0000203,0.0000000,0.0000000,0.0000000,0.0002034,0.0000000,0.0000000,0.0000203,0.0000203,0.0000000,0.0000000,0.0000040,0.0000000,0.0000000,0.0000000,0.0000203,0.0000000,0.0000000,0.0000040,0.0000000,0.0000000,0.0000000,0.0000203,0.0000000,0.0000000,0.0000040
130.5815850,,1.0200000,-0.9665018,-0.2566457,0.0002503,0.0026484,,,,0.0000000,0.0000000,0.0000000,1.0683104,-4.1310539,-10.7572956,0.0000000,0.0000000,0.0000000,0.1020000,0.0001994,0.0000000,0.0000000,0.0000199,0.0000000,0.0000000,0.0000000,0.0001994,0.0000000,0.0000000,0.0000199,0.0000000,0.0000000,0.0000000,0.0001994,0.0000000,0.0000000,0.0000199,0.0000199,0.0000000,0.0000000,0.0000040,0.0000000,0.0000000,0.0000000,0.0000199,0.0000000,0.0000000,0.0000040,0.0000000,0.0000000,0.0000000,0.0000199,0.0000000,0.0000000,0.0000040
130.5954180,1.0000501,,-0.9665018,-0.2566457,0.0002492,0.0026424,-0.0045478,-0.0016423,-0.0013811,,,,1.0683104,-4.1310539,-10.7572956,0.0000000,0.0000000,0.0000000,0.0200010,0.0002002,0.0000000,0.0000000,0.0000200,0.0000000,0.0000000,0.0000000,0.0002002,0.0000000,0.0000000,0.0000200,0.0000000,0.0000000,0.0000000,0.0002002,0.0000000,0.0000000,0.0000200,0.0000200,0.0000000,0.0000000,0.0000040,0.0000000,0.0000000,0.0000000,0.0000200,0.0000000,0.0000000,0.0000040,0.0000000,0.0000000,0.0000000,0.0000200,0.0000000,0.0000000,0.0000040
130.6085720,1.1497000,,-0.9665020,-0.2566458,0.0002442,0.0026157,-0.0073398,0.0039472,0.0019950,,,,1.0683104,-4.1310539,-10.7572956,0.0000000,0.0000000,0.0000000,0.0229940,0.0002011,0.0000000,0.0000000,0.0000201,0.0000000,0.0000000,0.0000000,0.0002011,0.0000000,0.0000000,0.0000201,0.0000000,0.0000000,0.0000000,0.0002011,0.0000000,0.0000000,0.0000201,0.0000201,0.0000000,0.0000000,0.0000040,0.0000000,0.0000000,0.0000000,0.0000201,0.0000000,0.0000000,0.0000040,0.0000000,0.0000000,0.0000000,0.0000201,0.0000000,0.0000000,0.0000040
130.6296750,1.0504500,,-0.9665020,-0.2566458,0.0002326,0.0026212,0.0000227,0.0055518,0.0022182,,,,1.0683104,-4.1310539,-10.7572956,0.0000000,0.0000000,0.0000000,0.0210090,0.0002019,0.0000000,0.0000000,0.0000202,0.0000000,0.0000000,0.0000000,0.0002019,0.0000000,0.0000000,0.0000202,0.0000000,0.0000000,0.0000000,0.0002019,0.0000000,0.0000000,0.0000202,0.0000202,0.0000000,0.0000000,0.0000040,0.0000000,0.0000000,0.0000000,0.0000202,0.0000000,0.0000000,0.0000040,0.0000000,0.0000000,0.0000000,0.0000202,0.0000000,0.0000000,0.0000040
130.6492970,0.9996500,,-0.9665020,-0.2566458,0.0002235,0.0026217,-0.0009423,0.0065906,-0.0015764,,,,1.0683104,-4.1310539,-10.7572956,0.0000000,0.0000000,0.0000000,0.0199930,0.0002028,0.0000000,0.0000000,0.0000202,0.0000000,0.0000000,0.0000000,0.0002028,0.0000000,0.0000000,0.0000202,0.0000000,0.0000000,0.0000000,0.0002028,0.0000000,0.0000000,0.0000202,0.0000202,0.0000000,0.0000000,0.0000040,0.0000000,0.0000000,0.0000000,0.0000202,0.0000000,0.0000000,0.0000040,0.0000000,0.0000000,0.0000000,0.0000202,0.0000000,0.0000000,0.0000040
130.6698340,1.0003999,,-0.9665020,-0.2566458,0.0002263,0.0026236,-0.0016537,0.0022348,-0.0049386,,,,1.0683104,-4.1310539,-10.7572956,0.0000000,0.0000000,0.0000000,0.0200080,0.0002036,0.0000000,0.0000000,0.0000203,0.0000000,0.0000000,0.0000000,0.0002036,0.0000000,0.0000000,0.0000203,0.0000000,0.0000000,0.0000000,0.0002036,0.0000000,0.0000000,0.0000203,0.0000203,0.0000000,0.0000000,0.0000040,0.0000000,0.0000000,0.0000000,0.0000203,0.0000000,0.0000000,0.0000040,0.0000000,0.0000000,0.0000000,0.0000203,0.0000000,0.0000000,0.0000040
130.6855340,,1.0200200,-0.9665020,-0.2566458,0.0002263,0.0026236,,,,0.0000000,0.0000000,0.0000000,1.0683104,-4.1310539,-10.7572956,0.0000000,0.0000000,0.0000000,0.1020020,0.0001995,0.0000000,0.0000000,0.0000199,0.0000000,0.0000000,0.0000000,0.0001995,0.0000000,0.0000000,0.0000199,0.0000000,0.0000000,0.0000000,0.0001995,0.0000000,0.0000000,0.0000199,0.0000199,0.0000000,0.0000000,0.0000040,0.0000000,0.0000000,0.0000000,0.0000199,0.0000000,0.0000000,0.0000040,0.0000000,0.0000000,0.0000000,0.0000199,0.0000000,0.0000000,0.0000040
130.6993340,0.9995500,,-0.9665019,-0.2566458,0.0002380,0.0026432,0.0002031,-0.0021022,0.0011928,,,,1.0683104,-4.1310539,-10.7572956,0.0000000,0.0000000,0.0000000,0.0199910,0.0002003,0.0000000,0.0000000,0.0000200,0.0000000,0.0000000,0.0000000,0.0002003,0.0000000,0.0000000,0.0000200,0.0000000,0.0000000,0.0000000,0.0002003,0.0000000,0.0000000,0.0000200,0.0000200,0.0000000,0.0000000,0.0000040,0.0000000,0.0000000,0.0000000,0.0000200,0.0000000,0.0000000,0.0000040,0.0000000,0.0000000,0.0000000,0.0000200,0.0000000,0.0000000,0.0000040
130.7124420,1.1499500,,-0.9665018,-0.2566458,0.0002334,0.0026688,-0.0030494,0.0011309,0.0059675,,,,1.0683104,-4.1310539,-10.7572956,0.0000000,0.0000000,0.0000000,0.0229990,0.0002012,0.0000000,0.0000000,0.0000201,0.0000000,0.0000000,0.0000000,0.0002012,0.0000000,0.0000000,0.0000201,0.0000000,0.0000000,0.0000000,0.0002012,0.0000000,0.0000000,0.0000201,0.0000201,0.0000000,0.0000000,0.0000040,0.0000000,0.0000000,0.0000000,0.0000201,0.0000000,0.0000000,0.0000040,0.0000000,0.0000000,0.0000000,0.0000201,0.0000000,0.0000000,0.0000040
130.7336970,1.0502501,,-0.9665018,-0.2566457,0.0002502,0.0026825,-0.0070789,-0.0011512,0.0059134,,,,1.0683104,-4.1310539,-10.7572956,0.0000000,0.0000000,0.0000000,0.0210050,0.0002021,0.0000000,0.0000000,0.0000202,0.0000000,0.0000000,0.0000000,0.0002021,0.0000000,0.0000000,0.0000202,0.0000000,0.0000000,0.0000000,0.0002021,0.0000000,0.0000000,0.0000202,0.0000202,0.0000000,0.0000000,0.0000040,0.0000000,0.0000000,0.0000000,0.0000202,0.0000000,0.0000000,0.0000040,0.0000000,0.0000000,0.0000000,0.0000202,0.0000000,0.0000000,0.0000040
130.7547350,1.0498501,,-0.9665018,-0.2566457,0.0002656,0.0026799,-0.0010217,-0.0010867,-0.0014378,,,,1.0683104,-4.1310539,-10.7572956,0.0000000,0.0000000,0.0000000,0.0209970,0.0002029,0.0000000,0.0000000,0.0000203,0.0000000,0.0000000,0.0000000,0.0002029,0.0000000,0.0000000,0.0000203,0.0000000,0.0000000,0.0000000,0.0002029,0.0000000,0.0000000,0.0000203,0.0000203,0.0000000,0.0000000,0.0000040,0.0000000,0.0000000,0.0000000,0.0000203,0.0000000,0.0000000,0.0000040,0.0000000,0.0000000,0.0000000,0.0000203,0.0000000,0.0000000,0.0000040
130.7758500,1.0500000,,-0.9665018,-0.2566457,0.0002724,0.0026751,0.0068896,0.0008910,0.0068495,,,,1.0683104,-4.1310539,-10.7572956,0.0000000,0.0000000,0.0000000,0.0210000,0.0002038,0.0000000,0.0000000,0.0000203,0.0000000,0.0000000,0.0000000,0.0002038,0.0000000,0.0000000,0.0000203,0.0000000,0.0000000,0.0000000,0.0002038,0.0000000,0.0000000,0.0000203,0.0000203,0.0000000,0.0000000,0.0000040,0.0000000,0.0000000,0.0000000,0.0000203,0.0000000,0.0000000,0.0000040,0.0000000,0.0000000,0.0000000,0.0000203,0.0000000,0.0000000,0.0000040
130.7917620,,1.0199800,-0.9665018,-0.2566457,0.0002724,0.0026751,,,,0.0000000,0.0000000,0.0000000,1.0683104,-4.1310539,-10.7572956,0.0000000,0.0000000,0.0000000,0.1019980,0.0001997,0.0000000,0.0000000,0.0000199,0.0000000,0.0000000,0.0000000,0.0001997,0.0000000,0.0000000,0.0000199,0.0000000,0.0000000,0.0000000,0.0001997,0.0000000,0.0000000,0.0000199,0.0000199,0.0000000,0.0000000,0.0000040,0.0000000,0.0000000,0.0000000,0.0000199,0.0000000,0.0000000,0.0000040,0.0000000,0.0000000,0.0000000,0.0000199,0.0000000,0.0000000,0.0000040
130.8055580,1.0003999,,-0.9665018,-0.2566457,0.0002831,0.0026612,0.0001260,0.0030852,0.0090400,,,,1.0683104,-4.1310539,-10.7572956,0.0000000,0.0000000,0.0000000,0.0200080,0.0002005,0.0000000,0.0000000,0.0000200,0.0000000,0.0000000,0.0000000,0.0002005,0.0000000,0.0000000,0.0000200,0.0000000,0.0000000,0.0000000,0.0002005,0.0000000,0.0000000,0.0000200,0.0000200,0.0000000,0.0000000,0.0000040,0.0000000,0.0000000,0.0000000,0.0000200,0.0000000,0.0000000,0.0000040,0.0000000,0.0000000,0.0000000,0.0000200,0.0000000,0.0000000,0.0000040
130.8186490,1.1495000,,-0.9665020,-0.2566456,0.0002968,0.0026267,-0.0071315,-0.0007538,0.0059848,,,,1.0683104,-4.1310539,-10.7572956,0.0000000,0.0000000,0.0000000,0.0229900,0.0002014,0.0000000,0.0000000,0.0000201,0.0000000,0.0000000,0.0000000,0.0002014,0.0000000,0.0000000,0.0000201,0.0000000,0.0000000,0.0000000,0.0002014,0.0000000,0.0000000,0.0000201,0.0000201,0.0000000,0.0000000,0.0000040,0.0000000,0.0000000,0.0000000,0.0000201,0.0000000,0.0000000,0.0000040,0.0000000,0.0000000,0.0000000,0.0000201,0.0000000,0.0000000,0.0000040
130.8397800,1.0504500,,-0.9665020,-0.2566457,0.0002968,0.0026128,-0.0019865,0.0005081,-0.0006697,,,,1.0683104,-4.1310539,-10.7572956,0.0000000,0.0000000,0.0000000,0.0210090,0.0002023,0.0000000,0.0000000,0.0000202,0.0000000,0.0000000,0.0000000,0.0002023,0.0000000,0.0000000,0.0000202,0.0000000,0.0000000,0.0000000,0.0002023,0.0000000,0.0000000,0.0000202,0.0000202,0.0000000,0.0000000,0.0000040,0.0000000,0.0000000,0.0000000,0.0000202,0.0000000,0.0000000,0.0000040,0.0000000,0.0000000,0.0000000,0.0000202,0.0000000,0.0000000,0.0000040
130.8597070,0.9996500,,-0.9665020,-0.2566457,0.0003000,0.0026029,-0.0006270,-0.0044838,-0.0005790,,,,1.0683104,-4.1310539,-10.7572956,0.0000000,0.0000000,0.0000000,0.0199930,0.0002031,0.0000000,0.0000000,0.0000203,0.0000000,0.0000000,0.0000000,0.0002031,0.0000000,0.0000000,0.0000203,0.0000000,0.0000000,0.0000000,0.0002031,0.0000000,0.0000000,0.0000203,0.0000203,0.0000000,0.0000000,0.0000040,0.0000000,0.0000000,0.0000000,0.0000203,0.0000000,0.0000000,0.0000040,0.0000000,0.0000000,0.0000000,0.0000203,0.0000000,0.0000000,0.0000040
130.8811500,,1.0000000,-0.9665021,-0.2566457,0.0002993,0.0025818,,,,0.0000000,0.0000000,0.0000000,1.0683104,-4.1310539,-10.7572956,0.0000000,0.0000000,0.0000000,0.1000000,0.0001990,0.0000000,0.0000000,0.0000199,0.0000000,0.0000000,0.0000000,0.0001990,0.0000000,0.0000000,0.0000199,0.0000000,0.0000000,0.0000000,0.0001990,0.0000000,0.0000000,0.0000199,0.0000199,0.0000000,0.0000000,0.0000040,0.0000000,0.0000000,0.0000000,0.0000199,0.0000000,0.0000000,0.0000040,0.0000000,0.0000000,0.0000000,0.0000199,0.0000000,0.0000000,0.0000040
130.8944530,0.9999000,,-0.9665021,-0.2566457,0.0002993,0.0025818,-0.0033653,0.0029995,0.0001988,,,,1.0683104,-4.1310539,-10.7572956,0.0000000,0.0000000,0.0000000,0.0199980,0.0001998,0.0000000,0.0000000,0.0000200,0.0000000,0.0000000,0.0000000,0.0001998,0.0000000,0.0000000,0.0000200,0.0000000,0.0000000,0.0000000,0.0001998,0.0000000,0.0000000,0.0000200,0.0000200,0.0000000,0.0000000,0.0000040,0.0000000,0.0000000,0.0000000,0.0000200,0.0000000,0.0000000,0.0000040,0.0000000,0.0000000,0.0000000,0.0000200,0.0000000,0.0000000,0.0000040
130.9077290,1.3999500,,-0.9665020,-0.2566457,0.0002888,0.0026251,0.0010792,-0.0051226,0.0071795,,,,1.0683104,-4.1310539,-10.7572956,0.0000000,0.0000000,0.0000000,0.0279990,0.0002009,0.0000000,0.0000000,0.0000201,0.0000000,0.0000000,0.0000000,0.0002009,0.0000000,0.0000000,0.0000201,0.0000000,0.0000000,0.0000000,0.0002009,0.0000000,0.0000000,0.0000201,0.0000201,0.0000000,0.0000000,0.0000040,0.0000000,0.0000000,0.0000000,0.0000201,0.0000000,0.0000000,0.0000040,0.0000000,0.0000000,0.0000000,0.0000201,0.0000000,0.0000000,0.0000040
130.9279880,1.0001501,,-0.9665020,-0.2566456,0.0003033,0.0026075,-0.0024969,0.0049079,0.0087167,,,,1.0683104,-4.1310539,-10.7572956,0.0000000,0.0000000,0.0000000,0.0200030,0.0002017,0.0000000,0.0000000,0.0000201,0.0000000,0.0000000,0.0000000,0.0002017,0.0000000,0.0000000,0.0000201,0.0000000,0.0000000,0.0000000,0.0002017,0.0000000,0.0000000,0.0000201,0.0000201,0.0000000,0.0000000,0.0000040,0.0000000,0.0000000,0.0000000,0.0000201,0.0000000,0.0000000,0.0000040,0.0000000,0.0000000,0.0000000,0.0000201,0.0000000,0.0000000,0.0000040
130.9478020,1.0002999,,-0.9665020,-0.2566456,0.0003179,0.0026148,0.0030393,0.0004398,0.0109501,,,,1.0683104,-4.1310539,-10.7572956,0.0000000,0.0000000,0.0000000,0.0200060,0.0002025,0.0000000,0.0000000,0.0000202,0.0000000,0.0000000,0.0000000,0.0002025,0.0000000,0.0000000,0.0000202,0.0000000,0.0000000,0.0000000,0.0002025,0.0000000,0.0000000,0.0000202,0.0000202,0.0000000,0.0000000,0.0000040,0.0000000,0.0000000,0.0000000,0.0000202,0.0000000,0.0000000,0.0000040,0.0000000,0.0000000,0.0000000,0.0000202,0.0000000,0.0000000,0.0000040
130.9675260,0.9998000,,-0.9665020,-0.2566456,0.0003164,0.0026131,0.0023818,0.0062471,0.0040102,,,,1.0683104,-4.1310539,-10.7572956,0.0000000,0.0000000,0.0000000,0.0199960,0.0002034,0.0000000,0.0000000,0.0000203,0.0000000,0.0000000,0.0000000,0.0002034,0.0000000,0.0000000,0.0000203,0.0000000,0.0000000,0.0000000,0.0002034,0.0000000,0.0000000,0.0000203,0.0000203,0.0000000,0.0000000,0.0000040,0.0000000,0.0000000,0.0000000,0.0000203,0.0000000,0.0000000,0.0000040,0.0000000,0.0000000,0.0000000,0.0000203,0.0000000,0.0000000,0.0000040
130.9827170,,1.0000199,-0.9665020,-0.2566456,0.0003164,0.0026131,,,,0.0000000,0.0000000,0.0000000,1.0683104,-4.1310539,-10.7572956,0.0000000,0.0000000,0.0000000,0.1000020,0.0001993,0.0000000,0.0000000,0.0000199,0.0000000,0.0000000,0.0000000,0.0001993,0.0000000,0.0000000,0.0000199,0.0000000,0.0000000,0.0000000,0.0001993,0.0000000,0.0000000,0.0000199,0.0000199,0.0000000,0.0000000,0.0000040,0.0000000,0.0000000,0.0000000,0.0000199,0.0000000,0.0000000,0.0000040,0.0000000,0.0000000,0.0000000,0.0000199,0.0000000,0.0000000,0.0000040
130.9964850,1.0002000,,-0.9665020,-0.2566456,0.0003114,0.0026219,0.0042350,0.0069688,0.0000520,,,,1.0683104,-4.1310539,-10.7572956,0.0000000,0.0000000,0.0000000,0.0200040,0.0002001,0.0000000,0.0000000,0.0000200,0.0000000,0.0000000,0.0000000,0.0002001,0.0000000,0.0000000,0.0000200,0.0000000,0.0000000,0.0000000,0.0002001,0.0000000,0.0000000,0.0000200,0.0000200,0.0000000,0.0000000,0.0000040,0.0000000,0.0000000,0.0000000,0.0000200,0.0000000,0.0000000,0.0000040,0.0000000,0.0000000,0.0000000,0.0000200,0.0000000,0.0000000,0.0000040
131.0095300,1.0996500,,-0.9665020,-0.2566456,0.0003045,0.0026074,0.0051616,0.0043618,-0.0009506,,,,1.0683104,-4.1310539,-10.7572956,0.0000000,0.0000000,0.0000000,0.0219930,0.0002010,0.0000000,0.0000000,0.0000201,0.0000000,0.0000000,0.0000000,0.0002010,0.0000000,0.0000000,0.0000201,0.0000000,0.0000000,0.0000000,0.0002010,0.0000000,0.0000000,0.0000201,0.0000201,0.0000000,0.0000000,0.0000040,0.0000000,0.0000000,0.0000000,0.0000201,0.0000000,0.0000000,0.0000040,0.0000000,0.0000000,0.0000000,0.0000201,0.0000000,0.0000000,0.0000040
131.0310840,1.0000501,,-0.9665020,-0.2566456,0.0003197,0.0026133,0.0027258,-0.0022747,-0.0029167,,,,1.0683104,-4.1310539,-10.7572956,0.0000000,0.0000000,0.0000000,0.0200010,0.0002018,0.0000000,0.0000000,0.0000202,0.0000000,0.0000000,0.0000000,0.0002018,0.0000000,0.0000000,0.0000202,0.0000000,0.0000000,0.0000000,0.0002018,0.0000000,0.0000000,0.0000202,0.0000202,0.0000000,0.0000000,0.0000040,0.0000000,0.0000000,0.0000000,0.0000202,0.0000000,0.0000000,0.0000040,0.0000000,0.0000000,0.0000000,0.0000202,0.0000000,0.0000000,0.0000040
131.0495720,0.9999500,,-0.9665020,-0.2566455,0.0003502,0.0026332,0.0044681,-0.0106817,-0.0038998,,,,1.0683104,-4.1310539,-10.7572956,0.0000000,0.0000000,0.0000000,0.0199990,0.0002026,0.0000000,0.0000000,0.0000202,0.0000000,0.0000000,0.0000000,0.0002026,0.0000000,0.0000000,0.0000202,0.0000000,0.0000000,0.0000000,0.0002026,0.0000000,0.0000000,0.0000202,0.0000202,0.0000000,0.0000000,0.0000040,0.0000000,0.0000000,0.0000000,0.0000202,0.0000000,0.0000000,0.0000040,0.0000000,0.0000000,0.0000000,0.0000202,0.0000000,0.0000000,0.0000040
131.0697220,1.0000501,,-0.9665019,-0.2566455,0.0003734,0.0026561,0.0004716,-0.0102160,0.0022005,,,,1.0683104,-4.1310539,-10.7572956,0.0000000,0.0000000,0.0000000,0.0200010,0.0002034,0.0000000,0.0000000,0.0000203,0.0000000,0.0000000,0.0000000,0.0002034,0.0000000,0.0000000,0.0000203,0.0000000,0.0000000,0.0000000,0.0002034,0.0000000,0.0000000,0.0000203,0.0000203,0.0000000,0.0000000,0.0000040,0.0000000,0.0000000,0.0000000,0.0000203,0.0000000,0.0000000,0.0000040,0.0000000,0.0000000,0.0000000,0.0000203,0.0000000,0.0000000,0.0000040
131.0855230,,0.9999900,-0.9665019,-0.2566455,0.0003734,0.0026561,,,,0.0000000,0.0000000,0.0000000,1.0683104,-4.1310539,-10.7572956,0.0000000,0.0000000,0.0000000,0.0999990,0.0001993,0.0000000,0.0000000,0.0000199,0.0000000,0.0000000,0.0000000,0.0001993,0.0000000,0.0000000,0.0000199,0.0000000,0.0000000,0.0000000,0.0001993,0.0000000,0.0000000,0.0000199,0.0000199,0.0000000,0.0000000,0.0000040,0.0000000,0.0000000,0.0000000,0.0000199,0.0000000,0.0000000,0.0000040,0.0000000,0.0000000,0.0000000,0.0000199,0.0000000,0.0000000,0.0000040
131.0995690,0.9999500,,-0.9665019,-0.2566455,0.0003772,0.0026544,0.0028603,-0.0009805,0.0040299,,,,1.0683104,-4.1310539,-10.7572956,0.0000000,0.0000000,0.0000000,0.0199990,0.0002001,0.0000000,0.0000000,0.0000200,0.0000000,0.0000000,0.0000000,0.0002001,0.0000000,0.0000000,0.0000200,0.0000000,0.0000000,0.0000000,0.0002001,0.0000000,0.0000000,0.0000200,0.0000200,0.0000000,0.0000000,0.0000040,0.0000000,0.0000000,0.0000000,0.0000200,0.0000000,0.0000000,0.0000040,0.0000000,0.0000000,0.0000000,0.0000200,0.0000000,0.0000000,0.0000040
131.1124680,1.1499500,,-0.9665020,-0.2566455,0.0003705,0.0026433,-0.0003551,-0.0029774,0.0025033,,,,1.0683104,-4.1310539,-10.7572956,0.0000000,0.0000000,0.0000000,0.0229990,0.0002011,0.0000000,0.0000000,0.0000201,0.0000000,0.0000000,0.0000000,0.0002011,0.0000000,0.0000000,0.0000201,0.0000000,0.0000000,0.0000000,0.0002011,0.0000000,0.0000000,0.0000201,0.0000201,0.0000000,0.0000000,0.0000040,0.0000000,0.0000000,0.0000000,0.0000201,0.0000000,0.0000000,0.0000040,0.0000000,0.0000000,0.0000000,0.0000201,0.0000000,0.0000000,0.0000040
131.1338010,1.0504000,,-0.9665019,-0.2566456,0.0003496,0.0026569,0.0004328,-0.0034571,-0.0021663,,,,1.0683104,-4.1310539,-10.7572956,0.0000000,0.0000000,0.0000000,0.0210080,0.0002019,0.0000000,0.0000000,0.0000202,0.0000000,0.0000000,0.0000000,0.0002019,0.0000000,0.0000000,0.0000202,0.0000000,0.0000000,0.0000000,0.0002019,0.0000000,0.0000000,0.0000202,0.0000202,0.0000000,0.0000000,0.0000040,0.0000000,0.0000000,0.0000000,0.0000202,0.0000000,0.0000000,0.0000040,0.0000000,0.0000000,0.0000000,0.0000202,0.0000000,0.0000000,0.0000040
131.1536740,0.9997000,,-0.9665018,-0.2566456,0.0003435,0.0026606,0.0008420,0.0016665,-0.0059660,,,,1.0683104,-4.1310539,-10.7572956,0.0000000,0.0000000,0.0000000,0.0199940,0.0002027,0.0000000,0.0000000,0.0000202,0.0000000,0.0000000,0.0000000,0.0002027,0.0000000,0.0000000,0.0000202,0.0000000,0.0000000,0.0000000,0.0002027,0.0000000,0.0000000,0.0000202,0.0000202,0.0000000,0.0000000,0.0000040,0.0000000,0.0000000,0.0000000,0.0000202,0.0000000,0.0000000,0.0000040,0.0000000,0.0000000,0.0000000,0.0000202,0.0000000,0.0000000,0.0000040
131.1737720,1.0000000,,-0.9665018,-0.2566455,0.0003569,0.0026631,-0.0040498,-0.0028365,-0.0017623,,,,1.0683104,-4.1310539,-10.7572956,0.0000000,0.0000000,0.0000000,0.0200000,0.0002035,0.0000000,0.0000000,0.0000203,0.0000000,0.0000000,0.0000000,0.0002035,0.0000000,0.0000000,0.0000203,0.0000000,0.0000000,0.0000000,0.0002035,0.0000000,0.0000000,0.0000203,0.0000203,0.0000000,0.0000000,0.0000040,0.0000000,0.0000000,0.0000000,0.0000203,0.0000000,0.0000000,0.0000040,0.0000000,0.0000000,0.0000000,0.0000203,0.0000000,0.0000000,0.0000040
131.1895750,,1.0199900,-0.9665018,-0.2566455,0.0003569,0.0026631,,,,0.0000000,0.0000000,0.0000000,1.0683104,-4.1310539,-10.7572956,0.0000000,0.0000000,0.0000000,0.1019990,0.0001995,0.0000000,0.0000000,0.0000199,0.0000000,0.0000000,0.0000000,0.0001995,0.0000000,0.0000000,0.0000199,0.0000000,0.0000000,0.0000000,0.0001995,0.0000000,0.0000000,0.0000199,0.0000199,0.0000000,0.0000000,0.0000040,0.0000000,0.0000000,0.0000000,0.0000199,0.0000000,0.0000000,0.0000040,0.0000000,0.0000000,0.0000000,0.0000199,0.0000000,0.0000000,0.0000040
131.2033070,1.0005001,,-0.9665020,-0.2566456,0.0003453,0.0026337,-0.0048096,0.0026559,0.0018044,,,,1.0683104,-4.1310539,-10.7572956,0.0000000,0.0000000,0.0000000,0.0200100,0.0002003,0.0000000,0.0000000,0.0000200,0.0000000,0.0000000,0.0000000,0.0002003,0.0000000,0.0000000,0.0000200,0.0000000,0.0000000,0.0000000,0.0002003,0.0000000,0.0000000,0.0000200,0.0000200,0.0000000,0.0000000,0.0000040,0.0000000,0.0000000,0.0000000,0.0000200,0.0000000,0.0000000,0.0000040,0.0000000,0.0000000,0.0000000,0.0000200,0.0000000,0.0000000,0.0000040
131.2166400,1.1494001,,-0.9665020,-0.2566456,0.0003480,0.0026216,-0.0027329,0.0010151,0.0011463,,,,1.0683104,-4.1310539,-10.7572956,0.0000000,0.0000000,0.0000000,0.0229880,0.0002012,0.0000000,0.0000000,0.0000201,0.0000000,0.0000000,0.0000000,0.0002012,0.0000000,0.0000000,0.0000201,0.0000000,0.0000000,0.0000000,0.0002012,0.0000000,0.0000000,0.0000201,0.0000201,0.0000000,0.0000000,0.0000040,0.0000000,0.0000000,0.0000000,0.0000201,0.0000000,0.0000000,0.0000040,0.0000000,0.0000000,0.0000000,0.0000201,0.0000000,0.0000000,0.0000040
131.2365700,1.0002000,,-0.9665020,-0.2566456,0.0003274,0.0026166,0.0029060,0.0011637,0.0096064,,,,1.0683104,-4.1310539,-10.7572956,0.0000000,0.0000000,0.0000000,0.0200040,0.0002020,0.0000000,0.0000000,0.0000202,0.0000000,0.0000000,0.0000000,0.0002020,0.0000000,0.0000000,0.0000202,0.0000000,0.0000000,0.0000000,0.0002020,0.0000000,0.0000000,0.0000202,0.0000202,0.0000000,0.0000000,0.0000040,0.0000000,0.0000000,0.0000000,0.0000202,0.0000000,0.0000000,0.0000040,0.0000000,0.0000000,0.0000000,0.0000202,0.0000000,0.0000000,0.0000040
131.2575040,1.0499500,,-0.9665020,-0.2566457,0.0003053,0.0026289,0.0044742,0.0002843,0.0065122,,,,1.0683104,-4.1310539,-10.7572956,0.0000000,0.0000000,0.0000000,0.0209990,0.0002028,0.0000000,0.0000000,0.0000203,0.0000000,0.0000000,0.0000000,0.0002028,0.0000000,0.0000000,0.0000203,0.0000000,0.0000000,0.0000000,0.0002028,0.0000000,0.0000000,0.0000203,0.0000203,0.0000000,0.0000000,0.0000040,0.0000000,0.0000000,0.0000000,0.0000203,0.0000000,0.0000000,0.0000040,0.0000000,0.0000000,0.0000000,0.0000203,0.0000000,0.0000000,0.0000040
131.2789990,1.0499500,,-0.9665020,-0.2566457,0.0002901,0.0026271,0.0059832,0.0034838,0.0056975,,,,1.0683104,-4.1310539,-10.7572956,0.0000000,0.0000000,0.0000000,0.0209990,0.0002037,0.0000000,0.0000000,0.0000203,0.0000000,0.0000000,0.0000000,0.0002037,0.0000000,0.0000000,0.0000203,0.0000000,0.0000000,0.0000000,0.0002037,0.0000000,0.0000000,0.0000203,0.0000203,0.0000000,0.0000000,0.0000040,0.0000000,0.0000000,0.0000000,0.0000203,0.0000000,0.0000000,0.0000040,0.0000000,0.0000000,0.0000000,0.0000203,0.0000000,0.0000000,0.0000040
131.2958440,,1.0000499,-0.9665020,-0.2566457,0.0002901,0.0026219,,,,0.0000000,0.0000000,0.0000000,1.0683104,-4.1310539,-10.7572956,0.0000000,0.0000000,0.0000000,0.1000050,0.0001996,0.0000000,0.0000000,0.0000199,0.0000000,0.0000000,0.0000000,0.0001996,0.0000000,0.0000000,0.0000199,0.0000000,0.0000000,0.0000000,0.0001996,0.0000000,0.0000000,0.0000199,0.0000199,0.0000000,0.0000000,0.0000040,0.0000000,0.0000000,0.0000000,0.0000199,0.0000000,0.0000000,0.0000040,0.0000000,0.0000000,0.0000000,0.0000199,0.0000000,0.0000000,0.0000040
131.3096470,1.0000000,,-0.9665020,-0.2566457,0.0002868,0.0026219,0.0062570,0.0058160,0.0055343,,,,1.0683104,-4.1310539,-10.7572956,0.0000000,0.0000000,0.0000000,0.0200000,0.0002004,0.0000000,0.0000000,0.0000200,0.0000000,0.0000000,0.0000000,0.0002004,0.0000000,0.0000000,0.0000200,0.0000000,0.0000000,0.0000000,0.0002004,0.0000000,0.0000000,0.0000200,0.0000200,0.0000000,0.0000000,0.0000040,0.0000000,0.0000000,0.0000000,0.0000200,0.0000000,0.0000000,0.0000040,0.0000000,0.0000000,0.0000000,0.0000200,0.0000000,0.0000000,0.0000040
131.3224460,1.1999000,,-0.9665020,-0.2566457,0.0003105,0.0026335,-0.0013729,-0.0029895,-0.0001625,,,,1.0683104,-4.1310539,-10.7572956,0.0000000,0.0000000,0.0000000,0.0239980,0.0002014,0.0000000,0.0000000,0.0000201,0.0000000,0.0000000,0.0000000,0.0002014,0.0000000,0.0000000,0.0000201,0.0000000,0.0000000,0.0000000,0.0002014,0.0000000,0.0000000,0.0000201,0.0000201,0.0000000,0.0000000,0.0000040,0.0000000,0.0000000,0.0000000,0.0000201,0.0000000,0.0000000,0.0000040,0.0000000,0.0000000,0.0000000,0.0000201,0.0000000,0.0000000,0.0000040
131.3437470,1.0504000,,-0.9665020,-0.2566456,0.0003279,0.0026444,0.0021441,-0.0015253,-0.0020344,,,,1.0683104,-4.1310539,-10.7572956,0.0000000,0.0000000,0.0000000,0.0210080,0.0002022,0.0000000,0.0000000,0.0000202,0.0000000,0.0000000,0.0000000,0.0002022,0.0000000,0.0000000,0.0000202,0.0000000,0.0000000,0.0000000,0.0002022,0.0000000,0.0000000,0.0000202,0.0000202,0.0000000,0.0000000,0.0000040,0.0000000,0.0000000,0.0000000,0.0000202,0.0000000,0.0000000,0.0000040,0.0000000,0.0000000,0.0000000,0.0000202,0.0000000,0.0000000,0.0000040
131.3636220,0.9997000,,-0.9665018,-0.2566456,0.0003263,0.0026653,0.0026513,-0.0027158,-0.0037027,,,,1.0683104,-4.1310539,-10.7572956,0.0000000,0.0000000,0.0000000,0.0199940,0.0002030,0.0000000,0.0000000,0.0000203,0.0000000,0.0000000,0.0000000,0.0002030,0.0000000,0.0000000,0.0000203,0.0000000,0.0000000,0.0000000,0.0002030,0.0000000,0.0000000,0.0000203,0.0000203,0.0000000,0.0000000,0.0000040,0.0000000,0.0000000,0.0000000,0.0000203,0.0000000,0.0000000,0.0000040,0.0000000,0.0000000,0.0000000,0.0000203,0.0000000,0.0000000,0.0000040
131.3827330,,1.0099800,-0.9665017,-0.2566457,0.0003037,0.0026925,,,,0.0000000,0.0000000,0.0000000,1.0683104,-4.1310539,-10.7572956,0.0000000,0.0000000,0.0000000,0.1009980,0.0001990,0.0000000,0.0000000,0.0000199,0.0000000,0.0000000,0.0000000,0.0001990,0.0000000,0.0000000,0.0000199,0.0000000,0.0000000,0.0000000,0.0001990,0.0000000,0.0000000,0.0000199,0.0000199,0.0000000,0.0000000,0.0000040,0.0000000,0.0000000,0.0000000,0.0000199,0.0000000,0.0000000,0.0000040,0.0000000,0.0000000,0.0000000,0.0000199,0.0000000,0.0000000,0.0000040
131.3964350,1.0002999,,-0.9665017,-0.2566457,0.0003037,0.0026925,0.0043240,-0.0106200,-0.0030721,,,,1.0683104,-4.1310539,-10.7572956,0.0000000,0.0000000,0.0000000,0.0200060,0.0001998,0.0000000,0.0000000,0.0000199,0.0000000,0.0000000,0.0000000,0.0001998,0.0000000,0.0000000,0.0000199,0.0000000,0.0000000,0.0000000,0.0001998,0.0000000,0.0000000,0.0000199,0.0000199,0.0000000,0.0000000,0.0000040,0.0000000,0.0000000,0.0000000,0.0000199,0.0000000,0.0000000,0.0000040,0.0000000,0.0000000,0.0000000,0.0000199,0.0000000,0.0000000,0.0000040
131.4095680,1.2996000,,-0.9665017,-0.2566458,0.0002664,0.0027155,-0.0024690,-0.0028457,0.0016378,,,,1.0683104,-4.1310539,-10.7572956,0.0000000,0.0000000,0.0000000,0.0259920,0.0002008,0.0000000,0.0000000,0.0000201,0.0000000,0.0000000,0.0000000,0.0002008,0.0000000,0.0000000,0.0000201,0.0000000,0.0000000,0.0000000,0.0002008,0.0000000,0.0000000,0.0000201,0.0000201,0.0000000,0.0000000,0.0000040,0.0000000,0.0000000,0.0000000,0.0000201,0.0000000,0.0000000,0.0000040,0.0000000,0.0000000,0.0000000,0.0000201,0.0000000,0.0000000,0.0000040
131.4309080,1.0502001,,-0.9665017,-0.2566459,0.0002370,0.0027157,-0.0009980,0.0007744,0.0093638,,,,1.0683104,-4.1310539,-10.7572956,0.0000000,0.0000000,0.0000000,0.0210040,0.0002017,0.0000000,0.0000000,0.0000201,0.0000000,0.0000000,0.0000000,0.0002017,0.0000000,0.0000000,0.0000201,0.0000000,0.0000000,0.0000000,0.0002017,0.0000000,0.0000000,0.0000201,0.0000201,0.0000000,0.0000000,0.0000040,0.0000000,0.0000000,0.0000000,0.0000201,0.0000000,0.0000000,0.0000040,0.0000000,0.0000000,0.0000000,0.0000201,0.0000000,0.0000000,0.0000040
131.4507930,1.0000501,,-0.9665017,-0.2566459,0.0002224,0.0026998,-0.0014679,-0.0045261,0.0037053,,,,1.0683104,-4.1310539,-10.7572956,0.0000000,0.0000000,0.0000000,0.0200010,0.0002025,0.0000000,0.0000000,0.0000202,0.0000000,0.0000000,0.0000000,0.0002025,0.0000000,0.0000000,0.0000202,0.0000000,0.0000000,0.0000000,0.0002025,0.0000000,0.0000000,0.0000202,0.0000202,0.0000000,0.0000000,0.0000040,0.0000000,0.0000000,0.0000000,0.0000202,0.0000000,0.0000000,0.0000040,0.0000000,0.0000000,0.0000000,0.0000202,0.0000000,0.0000000,0.0000040
131.4708420,1.0002999,,-0.9665017,-0.2566459,0.0002191,0.0027139,-0.0031754,-0.0003023,0.0018527,,,,1.0683104,-4.1310539,-10.7572956,0.0000000,0.0000000,0.0000000,0.0200060,0.0002033,0.0000000,0.0000000,0.0000203,0.0000000,0.0000000,0.0000000,0.0002033,0.0000000,0.0000000,0.0000203,0.0000000,0.0000000,0.0000000,0.0002033,0.0000000,0.0000000,0.0000203,0.0000203,0.0000000,0.0000000,0.0000040,0.0000000,0.0000000,0.0000000,0.0000203,0.0000000,0.0000000,0.0000040,0.0000000,0.0000000,0.0000000,0.0000203,0.0000000,0.0000000,0.0000040
131.4866120,,1.0000401,-0.9665017,-0.2566459,0.0002191,0.0027139,,,,0.0000000,0.0000000,0.0000000,1.0683104,-4.1310539,-10.7572956,0.0000000,0.0000000,0.0000000,0.1000040,0.0001992,0.0000000,0.0000000,0.0000199,0.0000000,0.0000000,0.0000000,0.0001992,0.0000000,0.0000000,0.0000199,0.0000000,0.0000000,0.0000000,0.0001992,0.0000000,0.0000000,0.0000199,0.0000199,0.0000000,0.0000000,0.0000040,0.0000000,0.0000000,0.0000000,0.0000199,0.0000000,0.0000000,0.0000040,0.0000000,0.0000000,0.0000000,0.0000199,0.0000000,0.0000000,0.0000040
131.5002810,0.9996000,,-0.9665017,-0.2566459,0.0002288,0.0027189,-0.0040062,-0.0037980,0.0026353,,,,1.0683104,-4.1310539,-10.7572956,0.0000000,0.0000000,0.0000000,0.0199920,0.0002000,0.0000000,0.0000000,0.0000200,0.0000000,0.0000000,0.0000000,0.0002000,0.0000000,0.0000000,0.0000200,0.0000000,0.0000000,0.0000000,0.0002000,0.0000000,0.0000000,0.0000200,0.0000200,0.0000000,0.0000000,0.0000040,0.0000000,0.0000000,0.0000000,0.0000200,0.0000000,0.0000000,0.0000040,0.0000000,0.0000000,0.0000000,0.0000200,0.0000000,0.0000000,0.0000040
131.5137210,1.1498500,,-0.9665017,-0.2566459,0.0002381,0.0027191,-0.0017284,0.0015266,-0.0003913,,,,1.0683104,-4.1310539,-10.7572956,0.0000000,0.0000000,0.0000000,0.0229970,0.0002009,0.0000000,0.0000000,0.0000201,0.0000000,0.0000000,0.0000000,0.0002009,0.0000000,0.0000000,0.0000201,0.0000000,0.0000000,0.0000000,0.0002009,0.0000000,0.0000000,0.0000201,0.0000201,0.0000000,0.0000000,0.0000040,0.0000000,0.0000000,0.0000000,0.0000201,0.0000000,0.0000000,0.0000040,0.0000000,0.0000000,0.0000000,0.0000201,0.0000000,0.0000000,0.0000040
131.5337820,1.0001000,,-0.9665017,-0.2566459,0.0002362,0.0027042,-0.0035193,0.0017170,-0.0028812,,,,1.0683104,-4.1310539,-10.7572956,0.0000000,0.0000000,0.0000000,0.0200020,0.0002017,0.0000000,0.0000000,0.0000201,0.0000000,0.0000000,0.0000000,0.0002017,0.0000000,0.0000000,0.0000201,0.0000000,0.0000000,0.0000000,0.0002017,0.0000000,0.0000000,0.0000201,0.0000201,0.0000000,0.0000000,0.0000040,0.0000000,0.0000000,0.0000000,0.0000201,0.0000000,0.0000000,0.0000040,0.0000000,0.0000000,0.0000000,0.0000201,0.0000000,0.0000000,0.0000040
131.5540040,1.0000501,,-0.9665017,-0.2566459,0.0002465,0.0027151,-0.0012332,-0.0013235,-0.0033937,,,,1.0683104,-4.1310539,-10.7572956,0.0000000,0.0000000,0.0000000,0.0200010,0.0002025,0.0000000,0.0000000,0.0000202,0.0000000,0.0000000,0.0000000,0.0002025,0.0000000,0.0000000,0.0000202,0.0000000,0.0000000,0.0000000,0.0002025,0.0000000,0.0000000,0.0000202,0.0000202,0.0000000,0.0000000,0.0000040,0.0000000,0.0000000,0.0000000,0.0000202,0.0000000,0.0000000,0.0000040,0.0000000,0.0000000,0.0000000,0.0000202,0.0000000,0.0000000,0.0000040
131.5738160,0.9999000,,-0.9665016,-0.2566459,0.0002467,0.0027404,-0.0020586,-0.0020732,0.0024459,,,,1.0683104,-4.1310539,-10.7572956,0.0000000,0.0000000,0.0000000,0.0199980,0.0002034,0.0000000,0.0000000,0.0000203,0.0000000,0.0000000,0.0000000,0.0002034,0.0000000,0.0000000,0.0000203,0.0000000,0.0000000,0.0000000,0.0002034,0.0000000,0.0000000,0.0000203,0.0000203,0.0000000,0.0000000,0.0000040,0.0000000,0.0000000,0.0000000,0.0000203,0.0000000,0.0000000,0.0000040,0.0000000,0.0000000,0.0000000,0.0000203,0.0000000,0.0000000,0.0000040
131.5894520,,1.0199900,-0.9665016,-0.2566459,0.0002467,0.0027404,,,,0.0000000,0.0000000,0.0000000,1.0683104,-4.1310539,-10.7572956,0.0000000,0.0000000,0.0000000,0.1019990,0.0001993,0.0000000,0.0000000,0.0000199,0.0000000,0.0000000,0.0000000,0.0001993,0.0000000,0.0000000,0.0000199,0.0000000,0.0000000,0.0000000,0.0001993,0.0000000,0.0000000,0.0000199,0.0000199,0.0000000,0.0000000,0.0000040,0.0000000,0.0000000,0.0000000,0.0000199,0.0000000,0.0000000,0.0000040,0.0000000,0.0000000,0.0000000,0.0000199,0.0000000,0.0000000,0.0000040
131.6020030,1.0001000,,-0.9665016,-0.2566459,0.0002299,0.0027456,0.0023811,0.0004588,0.0004905,,,,1.0683104,-4.1310539,-10.7572956,0.0000000,0.0000000,0.0000000,0.0200020,0.0002001,0.0000000,0.0000000,0.0000200,0.0000000,0.0000000,0.0000000,0.0002001,0.0000000,0.0000000,0.0000200,0.0000000,0.0000000,0.0000000,0.0002001,0.0000000,0.0000000,0.0000200,0.0000200,0.0000000,0.0000000,0.0000040,0.0000000,0.0000000,0.0000000,0.0000200,0.0000000,0.0000000,0.0000040,0.0000000,0.0000000,0.0000000,0.0000200,0.0000000,0.0000000,0.0000040
131.6166850,1.1499000,,-0.9665016,-0.2566458,0.0002665,0.0027620,-0.0041119,-0.0001750,0.0012142,,,,1.0683104,-4.1310539,-10.7572956,0.0000000,0.0000000,0.0000000,0.0229980,0.0002010,0.0000000,0.0000000,0.0000201,0.0000000,0.0000000,0.0000000,0.0002010,0.0000000,0.0000000,0.0000201,0.0000000,0.0000000,0.0000000,0.0002010,0.0000000,0.0000000,0.0000201,0.0000201,0.0000000,0.0000000,0.0000040,0.0000000,0.0000000,0.0000000,0.0000201,0.0000000,0.0000000,0.0000040,0.0000000,0.0000000,0.0000000,0.0000201,0.0000000,0.0000000,0.0000040
131.6365190,1.0002501,,-0.9665015,-0.2566457,0.0003023,0.0028063,-0.0031927,-0.0038335,-0.0001330,,,,1.0683104,-4.1310539,-10.7572956,0.0000000,0.0000000,0.0000000,0.0200050,0.0002018,0.0000000,0.0000000,0.0000202,0.0000000,0.0000000,0.0000000,0.0002018,0.0000000,0.0000000,0.0000202,0.0000000,0.0000000,0.0000000,0.0002018,0.0000000,0.0000000,0.0000202,0.0000202,0.0000000,0.0000000,0.0000040,0.0000000,0.0000000,0.0000000,0.0000202,0.0000000,0.0000000,0.0000040,0.0000000,0.0000000,0.0000000,0.0000202,0.0000000,0.0000000,0.0000040
131.6565640,1.0002999,,-0.9665014,-0.2566456,0.0003109,0.0028307,-0.0000629,-0.0007800,0.0028556,,,,1.0683104,-4.1310539,-10.7572956,0.0000000,0.0000000,0.0000000,0.0200060,0.0002026,0.0000000,0.0000000,0.0000202,0.0000000,0.0000000,0.0000000,0.0002026,0.0000000,0.0000000,0.0000202,0.0000000,0.0000000,0.0000000,0.0002026,0.0000000,0.0000000,0.0000202,0.0000202,0.0000000,0.0000000,0.0000040,0.0000000,0.0000000,0.0000000,0.0000202,0.0000000,0.0000000,0.0000040,0.0000000,0.0000000,0.0000000,0.0000202,0.0000000,0.0000000,0.0000040
131.6775410,1.0497000,,-0.9665014,-0.2566457,0.0002980,0.0028370,-0.0004816,-0.0041589,0.0016643,,,,1.0683104,-4.1310539,-10.7572956,0.0000000,0.0000000,0.0000000,0.0209940,0.0002035,0.0000000,0.0000000,0.0000203,0.0000000,0.0000000,0.0000000,0.0002035,0.0000000,0.0000000,0.0000203,0.0000000,0.0000000,0.0000000,0.0002035,0.0000000,0.0000000,0.0000203,0.0000203,0.0000000,0.0000000,0.0000040,0.0000000,0.0000000,0.0000000,0.0000203,0.0000000,0.0000000,0.0000040,0.0000000,0.0000000,0.0000000,0.0000203,0.0000000,0.0000000,0.0000040
131.6932900,,1.0000700,-0.9665014,-0.2566457,0.0002980,0.0028370,,,,0.0000000,0.0000000,0.0000000,1.0683104,-4.1310539,-10.7572956,0.0000000,0.0000000,0.0000000,0.1000070,0.0001994,0.0000000,0.0000000,0.0000199,0.0000000,0.0000000,0.0000000,0.0001994,0.0000000,0.0000000,0.0000199,0.0000000,0.0000000,0.0000000,0.0001994,0.0000000,0.0000000,0.0000199,0.0000199,0.0000000,0.0000000,0.0000040,0.0000000,0.0000000,0.0000000,0.0000199,0.0000000,0.0000000,0.0000040,0.0000000,0.0000000,0.0000000,0.0000199,0.0000000,0.0000000,0.0000040
131.7071190,1.0997500,,-0.9665013,-0.2566457,0.0002967,0.0028554,0.0005298,-0.0094800,0.0027776,,,,1.0683104,-4.1310539,-10.7572956,0.0000000,0.0000000,0.0000000,0.0219950,0.0002003,0.0000000,0.0000000,0.0000200,0.0000000,0.0000000,0.0000000,0.0002003,0.0000000,0.0000000,0.0000200,0.0000000,0.0000000,0.0000000,0.0002003,0.0000000,0.0000000,0.0000200,0.0000200,0.0000000,0.0000000,0.0000040,0.0000000,0.0000000,0.0000000,0.0000200,0.0000000,0.0000000,0.0000040,0.0000000,0.0000000,0.0000000,0.0000200,0.0000000,0.0000000,0.0000040
131.7206930,1.0501001,,-0.9665012,-0.2566457,0.0002821,0.0028757,0.0022256,-0.0104163,0.0072406,,,,1.0683104,-4.1310539,-10.7572956,0.0000000,0.0000000,0.0000000,0.0210020,0.0002011,0.0000000,0.0000000,0.0000201,0.0000000,0.0000000,0.0000000,0.0002011,0.0000000,0.0000000,0.0000201,0.0000000,0.0000000,0.0000000,0.0002011,0.0000000,0.0000000,0.0000201,0.0000201,0.0000000,0.0000000,0.0000040,0.0000000,0.0000000,0.0000000,0.0000201,0.0000000,0.0000000,0.0000040,0.0000000,0.0000000,0.0000000,0.0000201,0.0000000,0.0000000,0.0000040
131.7407540,1.0001501,,-0.9665011,-0.2566457,0.0002805,0.0029187,0.0091695,-0.0059329,0.0082513,,,,1.0683104,-4.1310539,-10.7572956,0.0000000,0.0000000,0.0000000,0.0200030,0.0002019,0.0000000,0.0000000,0.0000202,0.0000000,0.0000000,0.0000000,0.0002019,0.0000000,0.0000000,0.0000202,0.0000000,0.0000000,0.0000000,0.0002019,0.0000000,0.0000000,0.0000202,0.0000202,0.0000000,0.0000000,0.0000040,0.0000000,0.0000000,0.0000000,0.0000202,0.0000000,0.0000000,0.0000040,0.0000000,0.0000000,0.0000000,0.0000202,0.0000000,0.0000000,0.0000040
131.7608140,0.9999500,,-0.9665010,-0.2566458,0.0002492,0.0029432,0.0084299,-0.0034547,0.0038739,,,,1.0683104,-4.1310539,-10.7572956,0.0000000,0.0000000,0.0000000,0.0199990,0.0002027,0.0000000,0.0000000,0.0000202,0.0000000,0.0000000,0.0000000,0.0002027,0.0000000,0.0000000,0.0000202,0.0000000,0.0000000,0.0000000,0.0002027,0.0000000,0.0000000,0.0000202,0.0000202,0.0000000,0.0000000,0.0000040,0.0000000,0.0000000,0.0000000,0.0000202,0.0000000,0.0000000,0.0000040,0.0000000,0.0000000,0.0000000,0.0000202,0.0000000,0.0000000,0.0000040
131.7805240,1.0000501,,-0.9665010,-0.2566459,0.0002231,0.0029538,0.0080449,-0.0017350,-0.0000238,,,,1.0683104,-4.1310539,-10.7572956,0.0000000,0.0000000,0.0000000,0.0200010,0.0002036,0.0000000,0.0000000,0.0000203,0.0000000,0.0000000,0.0000000,0.0002036,0.0000000,0.0000000,0.0000203,0.0000000,0.0000000,0.0000000,0.0002036,0.0000000,0.0000000,0.0000203,0.0000203,0.0000000,0.0000000,0.0000040,0.0000000,0.0000000,0.0000000,0.0000203,0.0000000,0.0000000,0.0000040,0.0000000,0.0000000,0.0000000,0.0000203,0.0000000,0.0000000,0.0000040
131.7967140,,1.0198599,-0.9665010,-0.2566459,0.0002231,0.0029538,,,,0.0000000,0.0000000,0.0000000,1.0683104,-4.1310539,-10.7572956,0.0000000,0.0000000,0.0000000,0.1019860,0.0001995,0.0000000,0.0000000,0.0000199,0.0000000,0.0000000,0.0000000,0.0001995,0.0000000,0.0000000,0.0000199,0.0000000,0.0000000,0.0000000,0.0001995,0.0000000,0.0000000,0.0000199,0.0000199,0.0000000,0.0000000,0.0000040,0.0000000,0.0000000,0.0000000,0.0000199,0.0000000,0.0000000,0.0000040,0.0000000,0.0000000,0.0000000,0.0000199,0.0000000,0.0000000,0.0000040
131.8102320,1.0998499,,-0.9665009,-0.2566459,0.0002047,0.0029687,-0.0029050,-0.0064751,-0.0029492,,,,1.0683104,-4.1310539,-10.7572956,0.0000000,0.0000000,0.0000000,0.0219970,0.0002004,0.0000000,0.0000000,0.0000200,0.0000000,0.0000000,0.0000000,0.0002004,0.0000000,0.0000000,0.0000200,0.0000000,0.0000000,0.0000000,0.0002004,0.0000000,0.0000000,0.0000200,0.0000200,0.0000000,0.0000000,0.0000040,0.0000000,0.0000000,0.0000000,0.0000200,0.0000000,0.0000000,0.0000040,0.0000000,0.0000000,0.0000000,0.0000200,0.0000000,0.0000000,0.0000040
131.8235860,1.0498999,,-0.9665009,-0.2566459,0.0001979,0.0029784,-0.0000792,-0.0071362,0.0002267,,,,1.0683104,-4.1310539,-10.7572956,0.0000000,0.0000000,0.0000000,0.0209980,0.0002012,0.0000000,0.0000000,0.0000201,0.0000000,0.0000000,0.0000000,0.0002012,0.0000000,0.0000000,0.0000201,0.0000000,0.0000000,0.0000000,0.0002012,0.0000000,0.0000000,0.0000201,0.0000201,0.0000000,0.0000000,0.0000040,0.0000000,0.0000000,0.0000000,0.0000201,0.0000000,0.0000000,0.0000040,0.0000000,0.0000000,0.0000000,0.0000201,0.0000000,0.0000000,0.0000040
131.8437490,1.0000000,,-0.9665008,-0.2566459,0.0001931,0.0029974,-0.0042892,-0.0067038,-0.0096599,,,,1.0683104,-4.1310539,-10.7572956,0.0000000,0.0000000,0.0000000,0.0200000,0.0002020,0.0000000,0.0000000,0.0000202,0.0000000,0.0000000,0.0000000,0.0002020,0.0000000,0.0000000,0.0000202,0.0000000,0.0000000,0.0000000,0.0002020,0.0000000,0.0000000,0.0000202,0.0000202,0.0000000,0.0000000,0.0000040,0.0000000,0.0000000,0.0000000,0.0000202,0.0000000,0.0000000,0.0000040,0.0000000,0.0000000,0.0000000,0.0000202,0.0000000,0.0000000,0.0000040
131.8633640,1.0000501,,-0.9665008,-0.2566459,0.0001878,0.0030107,-0.0012748,-0.0042827,0.0012659,,,,1.0683104,-4.1310539,-10.7572956,0.0000000,0.0000000,0.0000000,0.0200010,0.0002028,0.0000000,0.0000000,0.0000203,0.0000000,0.0000000,0.0000000,0.0002028,0.0000000,0.0000000,0.0000203,0.0000000,0.0000000,0.0000000,0.0002028,0.0000000,0.0000000,0.0000203,0.0000203,0.0000000,0.0000000,0.0000040,0.0000000,0.0000000,0.0000000,0.0000203,0.0000000,0.0000000,0.0000040,0.0000000,0.0000000,0.0000000,0.0000203,0.0000000,0.0000000,0.0000040
131.8845370,1.0500000,,-0.9665008,-0.2566459,0.0001890,0.0030197,0.0017048,0.0037714,0.0018460,,,,1.0683104,-4.1310539,-10.7572956,0.0000000,0.0000000,0.0000000,0.0210000,0.0002037,0.0000000,0.0000000,0.0000203,0.0000000,0.0000000,0.0000000,0.0002037,0.0000000,0.0000000,0.0000203,0.0000000,0.0000000,0.0000000,0.0002037,0.0000000,0.0000000,0.0000203,0.0000203,0.0000000,0.0000000,0.0000040,0.0000000,0.0000000,0.0000000,0.0000203,0.0000000,0.0000000,0.0000040,0.0000000,0.0000000,0.0000000,0.0000203,0.0000000,0.0000000,0.0000040
131.9004180,,1.0200000,-0.9665008,-0.2566459,0.0001890,0.0030197,,,,0.0000000,0.0000000,0.0000000,1.0683104,-4.1310539,-10.7572956,0.0000000,0.0000000,0.0000000,0.1020000,0.0001996,0.0000000,0.0000000,0.0000199,0.0000000,0.0000000,0.0000000,0.0001996,0.0000000,0.0000000,0.0000199,0.0000000,0.0000000,0.0000000,0.0001996,0.0000000,0.0000000,0.0000199,0.0000199,0.0000000,0.0000000,0.0000040,0.0000000,0.0000000,0.0000000,0.0000199,0.0000000,0.0000000,0.0000040,0.0000000,0.0000000,0.0000000,0.0000199,0.0000000,0.0000000,0.0000040
131.9144110,0.9999500,,-0.9665008,-0.2566459,0.0001851,0.0030221,0.0031870,0.0031522,0.0026244,,,,1.0683104,-4.1310539,-10.7572956,0.0000000,0.0000000,0.0000000,0.0199990,0.0002004,0.0000000,0.0000000,0.0000200,0.0000000,0.0000000,0.0000000,0.0002004,0.0000000,0.0000000,0.0000200,0.0000000,0.0000000,0.0000000,0.0002004,0.0000000,0.0000000,0.0000200,0.0000200,0.0000000,0.0000000,0.0000040,0.0000000,0.0000000,0.0000000,0.0000200,0.0000000,0.0000000,0.0000040,0.0000000,0.0000000,0.0000000,0.0000200,0.0000000,0.0000000,0.0000040
131.9275720,1.1499500,,-0.9665008,-0.2566460,0.0001621,0.0030198,0.0026692,0.0006224,0.0042342,,,,1.0683104,-4.1310539,-10.7572956,0.0000000,0.0000000,0.0000000,0.0229990,0.0002013,0.0000000,0.0000000,0.0000201,0.0000000,0.0000000,0.0000000,0.0002013,0.0000000,0.0000000,0.0000201,0.0000000,0.0000000,0.0000000,0.0002013,0.0000000,0.0000000,0.0000201,0.0000201,0.0000000,0.0000000,0.0000040,0.0000000,0.0000000,0.0000000,0.0000201,0.0000000,0.0000000,0.0000040,0.0000000,0.0000000,0.0000000,0.0000201,0.0000000,0.0000000,0.0000040
131.9486990,1.0502001,,-0.9665008,-0.2566460,0.0001579,0.0030156,0.0031580,-0.0025956,-0.0017968,,,,1.0683104,-4.1310539,-10.7572956,0.0000000,0.0000000,0.0000000,0.0210040,0.0002022,0.0000000,0.0000000,0.0000202,0.0000000,0.0000000,0.0000000,0.0002022,0.0000000,0.0000000,0.0000202,0.0000000,0.0000000,0.0000000,0.0002022,0.0000000,0.0000000,0.0000202,0.0000202,0.0000000,0.0000000,0.0000040,0.0000000,0.0000000,0.0000000,0.0000202,0.0000000,0.0000000,0.0000040,0.0000000,0.0000000,0.0000000,0.0000202,0.0000000,0.0000000,0.0000040
131.9710650,1.0498999,,-0.9665008,-0.2566460,0.0001448,0.0030092,0.0021589,-0.0083702,-0.0053005,,,,1.0683104,-4.1310539,-10.7572956,0.0000000,0.0000000,0.0000000,0.0209980,0.0002030,0.0000000,0.0000000,0.0000203,0.0000000,0.0000000,0.0000000,0.0002030,0.0000000,0.0000000,0.0000203,0.0000000,0.0000000,0.0000000,0.0002030,0.0000000,0.0000000,0.0000203,0.0000203,0.0000000,0.0000000,0.0000040,0.0000000,0.0000000,0.0000000,0.0000203,0.0000000,0.0000000,0.0000040,0.0000000,0.0000000,0.0000000,0.0000203,0.0000000,0.0000000,0.0000040
131.9900830,,1.0000000,-0.9665008,-0.2566460,0.0001490,0.0030027,,,,0.0000000,0.0000000,0.0000000,1.0683104,-4.1310539,-10.7572956,0.0000000,0.0000000,0.0000000,0.1000000,0.0001990,0.0000000,0.0000000,0.0000199,0.0000000,0.0000000,0.0000000,0.0001990,0.0000000,0.0000000,0.0000199,0.0000000,0.0000000,0.0000000,0.0001990,0.0000000,0.0000000,0.0000199,0.0000199,0.0000000,0.0000000,0.0000040,0.0000000,0.0000000,0.0000000,0.0000199,0.0000000,0.0000000,0.0000040,0.0000000,0.0000000,0.0000000,0.0000199,0.0000000,0.0000000,0.0000040
132.0034850,0.9999000,,-0.9665008,-0.2566460,0.0001490,0.0030027,-0.0010034,-0.0056423,-0.0007048,,,,1.0683104,-4.1310539,-10.7572956,0.0000000,0.0000000,0.0000000,0.0199980,0.0001998,0.0000000,0.0000000,0.0000199,0.0000000,0.0000000,0.0000000,0.0001998,0.0000000,0.0000000,0.0000199,0.0000000,0.0000000,0.0000000,0.0001998,0.0000000,0.0000000,0.0000199,0.0000199,0.0000000,0.0000000,0.0000040,0.0000000,0.0000000,0.0000000,0.0000199,0.0000000,0.0000000,0.0000040,0.0000000,0.0000000,0.0000000,0.0000199,0.0000000,0.0000000,0.0000040
132.0165350,1.3500000,,-0.9665008,-0.2566461,0.0001402,0.0029944,0.0013065,-0.0074675,0.0028138,,,,1.0683104,-4.1310539,-10.7572956,0.0000000,0.0000000,0.0000000,0.0270000,0.0002008,0.0000000,0.0000000,0.0000201,0.0000000,0.0000000,0.0000000,0.0002008,0.0000000,0.0000000,0.0000201,0.0000000,0.0000000,0.0000000,0.0002008,0.0000000,0.0000000,0.0000201,0.0000201,0.0000000,0.0000000,0.0000040,0.0000000,0.0000000,0.0000000,0.0000201,0.0000000,0.0000000,0.0000040,0.0000000,0.0000000,0.0000000,0.0000201,0.0000000,0.0000000,0.0000040
132.0368350,1.0004500,,-0.9665008,-0.2566461,0.0001423,0.0030053,0.0024614,-0.0054198,-0.0020187,,,,1.0683104,-4.1310539,-10.7572956,0.0000000,0.0000000,0.0000000,0.0200090,0.0002016,0.0000000,0.0000000,0.0000201,0.0000000,0.0000000,0.0000000,0.0002016,0.0000000,0.0000000,0.0000201,0.0000000,0.0000000,0.0000000,0.0002016,0.0000000,0.0000000,0.0000201,0.0000201,0.0000000,0.0000000,0.0000040,0.0000000,0.0000000,0.0000000,0.0000201,0.0000000,0.0000000,0.0000040,0.0000000,0.0000000,0.0000000,0.0000201,0.0000000,0.0000000,0.0000040
132.0563450,0.9998000,,-0.9665008,-0.2566461,0.0001514,0.0030089,0.0047631,-0.0014587,0.0016686,,,,1.0683104,-4.1310539,-10.7572956,0.0000000,0.0000000,0.0000000,0.0199960,0.0002025,0.0000000,0.0000000,0.0000202,0.0000000,0.0000000,0.0000000,0.0002025,0.0000000,0.0000000,0.0000202,0.0000000,0.0000000,0.0000000,0.0002025,0.0000000,0.0000000,0.0000202,0.0000202,0.0000000,0.0000000,0.0000040,0.0000000,0.0000000,0.0000000,0.0000202,0.0000000,0.0000000,0.0000040,0.0000000,0.0000000,0.0000000,0.0000202,0.0000000,0.0000000,0.0000040
132.0765410,1.0005500,,-0.9665008,-0.2566461,0.0001474,0.0030215,0.0061428,-0.0050781,0.0037563,,,,1.0683104,-4.1310539,-10.7572956,0.0000000,0.0000000,0.0000000,0.0200110,0.0002033,0.0000000,0.0000000,0.0000203,0.0000000,0.0000000,0.0000000,0.0002033,0.0000000,0.0000000,0.0000203,0.0000000,0.0000000,0.0000000,0.0002033,0.0000000,0.0000000,0.0000203,0.0000203,0.0000000,0.0000000,0.0000040,0.0000000,0.0000000,0.0000000,0.0000203,0.0000000,0.0000000,0.0000040,0.0000000,0.0000000,0.0000000,0.0000203,0.0000000,0.0000000,0.0000040
132.0928360,,1.0000199,-0.9665008,-0.2566461,0.0001474,0.0030215,,,,0.0000000,0.0000000,0.0000000,1.0683104,-4.1310539,-10.7572956,0.0000000,0.0000000,0.0000000,0.1000020,0.0001992,0.0000000,0.0000000,0.0000199,0.0000000,0.0000000,0.0000000,0.0001992,0.0000000,0.0000000,0.0000199,0.0000000,0.0000000,0.0000000,0.0001992,0.0000000,0.0000000,0.0000199,0.0000199,0.0000000,0.0000000,0.0000040,0.0000000,0.0000000,0.0000000,0.0000199,0.0000000,0.0000000,0.0000040,0.0000000,0.0000000,0.0000000,0.0000199,0.0000000,0.0000000,0.0000040
132.1055560,1.0993000,,-0.9665006,-0.2566460,0.0001487,0.0030419,0.0014540,-0.0014938,-0.0032564,,,,1.0683104,-4.1310539,-10.7572956,0.0000000,0.0000000,0.0000000,0.0219860,0.0002001,0.0000000,0.0000000,0.0000200,0.0000000,0.0000000,0.0000000,0.0002001,0.0000000,0.0000000,0.0000200,0.0000000,0.0000000,0.0000000,0.0002001,0.0000000,0.0000000,0.0000200,0.0000200,0.0000000,0.0000000,0.0000040,0.0000000,0.0000000,0.0000000,0.0000200,0.0000000,0.0000000,0.0000040,0.0000000,0.0000000,0.0000000,0.0000200,0.0000000,0.0000000,0.0000040
132.1190090,0.9999000,,-0.9665006,-0.2566461,0.0001377,0.0030524,-0.0004174,0.0027397,-0.0028565,,,,1.0683104,-4.1310539,-10.7572956,0.0000000,0.0000000,0.0000000,0.0199980,0.0002009,0.0000000,0.0000000,0.0000201,0.0000000,0.0000000,0.0000000,0.0002009,0.0000000,0.0000000,0.0000201,0.0000000,0.0000000,0.0000000,0.0002009,0.0000000,0.0000000,0.0000201,0.0000201,0.0000000,0.0000000,0.0000040,0.0000000,0.0000000,0.0000000,0.0000201,0.0000000,0.0000000,0.0000040,0.0000000,0.0000000,0.0000000,0.0000201,0.0000000,0.0000000,0.0000040
132.1385960,1.0001000,,-0.9665006,-0.2566461,0.0001350,0.0030454,0.0018283,0.0019039,-0.0041214,,,,1.0683104,-4.1310539,-10.7572956,0.0000000,0.0000000,0.0000000,0.0200020,0.0002017,0.0000000,0.0000000,0.0000201,0.0000000,0.0000000,0.0000000,0.0002017,0.0000000,0.0000000,0.0000201,0.0000000,0.0000000,0.0000000,0.0002017,0.0000000,0.0000000,0.0000201,0.0000201,0.0000000,0.0000000,0.0000040,0.0000000,0.0000000,0.0000000,0.0000201,0.0000000,0.0000000,0.0000040,0.0000000,0.0000000,0.0000000,0.0000201,0.0000000,0.0000000,0.0000040
132.1588140,1.0000000,,-0.9665007,-0.2566461,0.0001405,0.0030293,-0.0033735,0.0009748,-0.0018242,,,,1.0683104,-4.1310539,-10.7572956,0.0000000,0.0000000,0.0000000,0.0200000,0.0002025,0.0000000,0.0000000,0.0000202,0.0000000,0.0000000,0.0000000,0.0002025,0.0000000,0.0000000,0.0000202,0.0000000,0.0000000,0.0000000,0.0002025,0.0000000,0.0000000,0.0000202,0.0000202,0.0000000,0.0000000,0.0000040,0.0000000,0.0000000,0.0000000,0.0000202,0.0000000,0.0000000,0.0000040,0.0000000,0.0000000,0.0000000,0.0000202,0.0000000,0.0000000,0.0000040
132.1783040,1.0000501,,-0.9665008,-0.2566460,0.0001627,0.0030233,-0.0037467,0.0019904,0.0010334,,,,1.0683104,-4.1310539,-10.7572956,0.0000000,0.0000000,0.0000000,0.0200010,0.0002033,0.0000000,0.0000000,0.0000203,0.0000000,0.0000000,0.0000000,0.0002033,0.0000000,0.0000000,0.0000203,0.0000000,0.0000000,0.0000000,0.0002033,0.0000000,0.0000000,0.0000203,0.0000203,0.0000000,0.0000000,0.0000040,0.0000000,0.0000000,0.0000000,0.0000203,0.0000000,0.0000000,0.0000040,0.0000000,0.0000000,0.0000000,0.0000203,0.0000000,0.0000000,0.0000040
132.1948180,,1.0000000,-0.9665008,-0.2566460,0.0001627,0.0030233,,,,0.0000000,0.0000000,0.0000000,1.0683104,-4.1310539,-10.7572956,0.0000000,0.0000000,0.0000000,0.1000000,0.0001993,0.0000000,0.0000000,0.0000199,0.0000000,0.0000000,0.0000000,0.0001993,0.0000000,0.0000000,0.0000199,0.0000000,0.0000000,0.0000000,0.0001993,0.0000000,0.0000000,0.0000199,0.0000199,0.0000000,0.0000000,0.0000040,0.0000000,0.0000000,0.0000000,0.0000199,0.0000000,0.0000000,0.0000040,0.0000000,0.0000000,0.0000000,0.0000199,0.0000000,0.0000000,0.0000040
132.2084700,1.1001501,,-0.9665008,-0.2566460,0.0001746,0.0030204,-0.0063671,0.0034748,0.0017298,,,,1.0683104,-4.1310539,-10.7572956,0.0000000,0.0000000,0.0000000,0.0220030,0.0002001,0.0000000,0.0000000,0.0000200,0.0000000,0.0000000,0.0000000,0.0002001,0.0000000,0.0000000,0.0000200,0.0000000,0.0000000,0.0000000,0.0002001,0.0000000,0.0000000,0.0000200,0.0000200,0.0000000,0.0000000,0.0000040,0.0000000,0.0000000,0.0000000,0.0000200,0.0000000,0.0000000,0.0000040,0.0000000,0.0000000,0.0000000,0.0000200,0.0000000,0.0000000,0.0000040
132.2215480,1.0498000,,-0.9665007,-0.2566460,0.0001658,0.0030346,0.0008295,0.0003336,0.0042752,,,,1.0683104,-4.1310539,-10.7572956,0.0000000,0.0000000,0.0000000,0.0209960,0.0002010,0.0000000,0.0000000,0.0000201,0.0000000,0.0000000,0.0000000,0.0002010,0.0000000,0.0000000,0.0000201,0.0000000,0.0000000,0.0000000,0.0002010,0.0000000,0.0000000,0.0000201,0.0000201,0.0000000,0.0000000,0.0000040,0.0000000,0.0000000,0.0000000,0.0000201,0.0000000,0.0000000,0.0000040,0.0000000,0.0000000,0.0000000,0.0000201,0.0000000,0.0000000,0.0000040
132.2419240,1.0003500,,-0.9665006,-0.2566460,0.0001574,0.0030456,-0.0024157,0.0009679,0.0013976,,,,1.0683104,-4.1310539,-10.7572956,0.0000000,0.0000000,0.0000000,0.0200070,0.0002018,0.0000000,0.0000000,0.0000201,0.0000000,0.0000000,0.0000000,0.0002018,0.0000000,0.0000000,0.0000201,0.0000000,0.0000000,0.0000000,0.0002018,0.0000000,0.0000000,0.0000201,0.0000201,0.0000000,0.0000000,0.0000040,0.0000000,0.0000000,0.0000000,0.0000201,0.0000000,0.0000000,0.0000040,0.0000000,0.0000000,0.0000000,0.0000201,0.0000000,0.0000000,0.0000040
132.2617860,0.9996500,,-0.9665005,-0.2566460,0.0001554,0.0030749,0.0003485,0.0020632,-0.0039475,,,,1.0683104,-4.1310539,-10.7572956,0.0000000,0.0000000,0.0000000,0.0199930,0.0002026,0.0000000,0.0000000,0.0000202,0.0000000,0.0000000,0.0000000,0.0002026,0.0000000,0.0000000,0.0000202,0.0000000,0.0000000,0.0000000,0.0002026,0.0000000,0.0000000,0.0000202,0.0000202,0.0000000,0.0000000,0.0000040,0.0000000,0.0000000,0.0000000,0.0000202,0.0000000,0.0000000,0.0000040,0.0000000,0.0000000,0.0000000,0.0000202,0.0000000,0.0000000,0.0000040
132.2817570,1.0003500,,-0.9665005,-0.2566460,0.0001496,0.0030829,-0.0012067,0.0003984,-0.0022255,,,,1.0683104,-4.1310539,-10.7572956,0.0000000,0.0000000,0.0000000,0.0200070,0.0002034,0.0000000,0.0000000,0.0000203,0.0000000,0.0000000,0.0000000,0.0002034,0.0000000,0.0000000,0.0000203,0.0000000,0.0000000,0.0000000,0.0002034,0.0000000,0.0000000,0.0000203,0.0000203,0.0000000,0.0000000,0.0000040,0.0000000,0.0000000,0.0000000,0.0000203,0.0000000,0.0000000,0.0000040,0.0000000,0.0000000,0.0000000,0.0000203,0.0000000,0.0000000,0.0000040
132.2975580,,1.0000000,-0.9665005,-0.2566460,0.0001496,0.0030829,,,,0.0000000,0.0000000,0.0000000,1.0683104,-4.1310539,-10.7572956,0.0000000,0.0000000,0.0000000,0.1000000,0.0001993,0.0000000,0.0000000,0.0000199,0.0000000,0.0000000,0.0000000,0.0001993,0.0000000,0.0000000,0.0000199,0.0000000,0.0000000,0.0000000,0.0001993,0.0000000,0.0000000,0.0000199,0.0000199,0.0000000,0.0000000,0.0000040,0.0000000,0.0000000,0.0000000,0.0000199,0.0000000,0.0000000,0.0000040,0.0000000,0.0000000,0.0000000,0.0000199,0.0000000,0.0000000,0.0000040
132.3115280,1.0002000,,-0.9665006,-0.2566461,0.0001372,0.0030607,0.0024027,0.0034188,-0.0006321,,,,1.0683104,-4.1310539,-10.7572956,0.0000000,0.0000000,0.0000000,0.0200040,0.0002001,0.0000000,0.0000000,0.0000200,0.0000000,0.0000000,0.0000000,0.0002001,0.0000000,0.0000000,0.0000200,0.0000000,0.0000000,0.0000000,0.0002001,0.0000000,0.0000000,0.0000200,0.0000200,0.0000000,0.0000000,0.0000040,0.0000000,0.0000000,0.0000000,0.0000200,0.0000000,0.0000000,0.0000040,0.0000000,0.0000000,0.0000000,0.0000200,0.0000000,0.0000000,0.0000040
132.3244740,1.1494001,,-0.9665005,-0.2566461,0.0001416,0.0030702,0.0020177,-0.0057674,-0.0044741,,,,1.0683104,-4.1310539,-10.7572956,0.0000000,0.0000000,0.0000000,0.0229880,0.0002010,0.0000000,0.0000000,0.0000201,0.0000000,0.0000000,0.0000000,0.0002010,0.0000000,0.0000000,0.0000201,0.0000000,0.0000000,0.0000000,0.0002010,0.0000000,0.0000000,0.0000201,0.0000201,0.0000000,0.0000000,0.0000040,0.0000000,0.0000000,0.0000000,0.0000201,0.0000000,0.0000000,0.0000040,0.0000000,0.0000000,0.0000000,0.0000201,0.0000000,0.0000000,0.0000040
132.3471760,1.0505501,,-0.9665005,-0.2566461,0.0001390,0.0030822,-0.0018446,-0.0047376,-0.0002915,,,,1.0683104,-4.1310539,-10.7572956,0.0000000,0.0000000,0.0000000,0.0210110,0.0002019,0.0000000,0.0000000,0.0000202,0.0000000,0.0000000,0.0000000,0.0002019,0.0000000,0.0000000,0.0000202,0.0000000,0.0000000,0.0000000,0.0002019,0.0000000,0.0000000,0.0000202,0.0000202,0.0000000,0.0000000,0.0000040,0.0000000,0.0000000,0.0000000,0.0000202,0.0000000,0.0000000,0.0000040,0.0000000,0.0000000,0.0000000,0.0000202,0.0000000,0.0000000,0.0000040
132.3658470,0.9998500,,-0.9665005,-0.2566461,0.0001442,0.0030986,-0.0020591,0.0004388,-0.0016182,,,,1.0683104,-4.1310539,-10.7572956,0.0000000,0.0000000,0.0000000,0.0199970,0.0002027,0.0000000,0.0000000,0.0000202,0.0000000,0.0000000,0.0000000,0.0002027,0.0000000,0.0000000,0.0000202,0.0000000,0.0000000,0.0000000,0.0002027,0.0000000,0.0000000,0.0000202,0.0000202,0.0000000,0.0000000,0.0000040,0.0000000,0.0000000,0.0000000,0.0000202,0.0000000,0.0000000,0.0000040,0.0000000,0.0000000,0.0000000,0.0000202,0.0000000,0.0000000,0.0000040
132.3857670,0.9998500,,-0.9665005,-0.2566461,0.0001388,0.0030876,0.0009999,-0.0014057,0.0013805,,,,1.0683104,-4.1310539,-10.7572956,0.0000000,0.0000000,0.0000000,0.0199970,0.0002035,0.0000000,0.0000000,0.0000203,0.0000000,0.0000000,0.0000000,0.0002035,0.0000000,0.0000000,0.0000203,0.0000000,0.0000000,0.0000000,0.0002035,0.0000000,0.0000000,0.0000203,0.0000203,0.0000000,0.0000000,0.0000040,0.0000000,0.0000000,0.0000000,0.0000203,0.0000000,0.0000000,0.0000040,0.0000000,0.0000000,0.0000000,0.0000203,0.0000000,0.0000000,0.0000040
132.4014900,,1.0001000,-0.9665005,-0.2566461,0.0001388,0.0030876,,,,0.0000000,0.0000000,0.0000000,1.0683104,-4.1310539,-10.7572956,0.0000000,0.0000000,0.0000000,0.1000100,0.0001994,0.0000000,0.0000000,0.0000199,0.0000000,0.0000000,0.0000000,0.0001994,0.0000000,0.0000000,0.0000199,0.0000000,0.0000000,0.0000000,0.0001994,0.0000000,0.0000000,0.0000199,0.0000199,0.0000000,0.0000000,0.0000040,0.0000000,0.0000000,0.0000000,0.0000199,0.0000000,0.0000000,0.0000040,0.0000000,0.0000000,0.0000000,0.0000199,0.0000000,0.0000000,0.0000040
132.4151000,1.0002501,,-0.9665006,-0.2566462,0.0001299,0.0030438,0.0069315,0.0056525,-0.0012705,,,,1.0683104,-4.1310539,-10.7572956,0.0000000,0.0000000,0.0000000,0.0200050,0.0002002,0.0000000,0.0000000,0.0000200,0.0000000,0.0000000,0.0000000,0.0002002,0.0000000,0.0000000,0.0000200,0.0000000,0.0000000,0.0000000,0.0002002,0.0000000,0.0000000,0.0000200,0.0000200,0.0000000,0.0000000,0.0000040,0.0000000,0.0000000,0.0000000,0.0000200,0.0000000,0.0000000,0.0000040,0.0000000,0.0000000,0.0000000,0.0000200,0.0000000,0.0000000,0.0000040
132.4287210,1.1494499,,-0.9665007,-0.2566462,0.0001232,0.0030189,0.0072118,0.0018497,-0.0030843,,,,1.0683104,-4.1310539,-10.7572956,0.0000000,0.0000000,0.0000000,0.0229890,0.0002012,0.0000000,0.0000000,0.0000201,0.0000000,0.0000000,0.0000000,0.0002012,0.0000000,0.0000000,0.0000201,0.0000000,0.0000000,0.0000000,0.0002012,0.0000000,0.0000000,0.0000201,0.0000201,0.0000000,0.0000000,0.0000040,0.0000000,0.0000000,0.0000000,0.0000201,0.0000000,0.0000000,0.0000040,0.0000000,0.0000000,0.0000000,0.0000201,0.0000000,0.0000000,0.0000040
132.4497750,1.0505501,,-0.9665008,-0.2566461,0.0001533,0.0030010,-0.0003995,-0.0102980,-0.0064326,,,,1.0683104,-4.1310539,-10.7572956,0.0000000,0.0000000,0.0000000,0.0210110,0.0002020,0.0000000,0.0000000,0.0000202,0.0000000,0.0000000,0.0000000,0.0002020,0.0000000,0.0000000,0.0000202,0.0000000,0.0000000,0.0000000,0.0002020,0.0000000,0.0000000,0.0000202,0.0000202,0.0000000,0.0000000,0.0000040,0.0000000,0.0000000,0.0000000,0.0000202,0.0000000,0.0000000,0.0000040,0.0000000,0.0000000,0.0000000,0.0000202,0.0000000,0.0000000,0.0000040
132.4696640,0.9995000,,-0.9665008,-0.2566461,0.0001692,0.0029886,-0.0010237,-0.0029517,0.0019030,,,,1.0683104,-4.1310539,-10.7572956,0.0000000,0.0000000,0.0000000,0.0199900,0.0002028,0.0000000,0.0000000,0.0000203,0.0000000,0.0000000,0.0000000,0.0002028,0.0000000,0.0000000,0.0000203,0.0000000,0.0000000,0.0000000,0.0002028,0.0000000,0.0000000,0.0000203,0.0000203,0.0000000,0.0000000,0.0000040,0.0000000,0.0000000,0.0000000,0.0000203,0.0000000,0.0000000,0.0000040,0.0000000,0.0000000,0.0000000,0.0000203,0.0000000,0.0000000,0.0000040
132.4890330,,0.9998800,-0.9665009,-0.2566461,0.0001614,0.0029760,,,,0.0000000,0.0000000,0.0000000,1.0683104,-4.1310539,-10.7572956,0.0000000,0.0000000,0.0000000,0.0999880,0.0001988,0.0000000,0.0000000,0.0000198,0.0000000,0.0000000,0.0000000,0.0001988,0.0000000,0.0000000,0.0000198,0.0000000,0.0000000,0.0000000,0.0001988,0.0000000,0.0000000,0.0000198,0.0000198,0.0000000,0.0000000,0.0000040,0.0000000,0.0000000,0.0000000,0.0000198,0.0000000,0.0000000,0.0000040,0.0000000,0.0000000,0.0000000,0.0000198,0.0000000,0.0000000,0.0000040
132.5035620,1.0008000,,-0.9665009,-0.2566461,0.0001614,0.0029760,0.0010979,-0.0039249,0.0036294,,,,1.0683104,-4.1310539,-10.7572956,0.0000000,0.0000000,0.0000000,0.0200160,0.0001996,0.0000000,0.0000000,0.0000199,0.0000000,0.0000000,0.0000000,0.0001996,0.0000000,0.0000000,0.0000199,0.0000000,0.0000000,0.0000000,0.0001996,0.0000000,0.0000000,0.0000199,0.0000199,0.0000000,0.0000000,0.0000040,0.0000000,0.0000000,0.0000000,0.0000199,0.0000000,0.0000000,0.0000040,0.0000000,0.0000000,0.0000000,0.0000199,0.0000000,0.0000000,0.0000040
132.5167410,1.3491501,,-0.9665008,-0.2566461,0.0001582,0.0029984,-0.0003132,-0.0031526,0.0030278,,,,1.0683104,-4.1310539,-10.7572956,0.0000000,0.0000000,0.0000000,0.0269830,0.0002007,0.0000000,0.0000000,0.0000200,0.0000000,0.0000000,0.0000000,0.0002007,0.0000000,0.0000000,0.0000200,0.0000000,0.0000000,0.0000000,0.0002007,0.0000000,0.0000000,0.0000200,0.0000200,0.0000000,0.0000000,0.0000040,0.0000000,0.0000000,0.0000000,0.0000200,0.0000000,0.0000000,0.0000040,0.0000000,0.0000000,0.0000000,0.0000200,0.0000000,0.0000000,0.0000040
132.5367650,1.0004500,,-0.9665008,-0.2566461,0.0001476,0.0030003,0.0060461,0.0008727,0.0002856,,,,1.0683104,-4.1310539,-10.7572956,0.0000000,0.0000000,0.0000000,0.0200090,0.0002015,0.0000000,0.0000000,0.0000201,0.0000000,0.0000000,0.0000000,0.0002015,0.0000000,0.0000000,0.0000201,0.0000000,0.0000000,0.0000000,0.0002015,0.0000000,0.0000000,0.0000201,0.0000201,0.0000000,0.0000000,0.0000040,0.0000000,0.0000000,0.0000000,0.0000201,0.0000000,0.0000000,0.0000040,0.0000000,0.0000000,0.0000000,0.0000201,0.0000000,0.0000000,0.0000040
132.5567170,0.9999500,,-0.9665008,-0.2566461,0.0001585,0.0030047,0.0026645,0.0007034,-0.0003531,,,,1.0683104,-4.1310539,-10.7572956,0.0000000,0.0000000,0.0000000,0.0199990,0.0002023,0.0000000,0.0000000,0.0000202,0.0000000,0.0000000,0.0000000,0.0002023,0.0000000,0.0000000,0.0000202,0.0000000,0.0000000,0.0000000,0.0002023,0.0000000,0.0000000,0.0000202,0.0000202,0.0000000,0.0000000,0.0000040,0.0000000,0.0000000,0.0000000,0.0000202,0.0000000,0.0000000,0.0000040,0.0000000,0.0000000,0.0000000,0.0000202,0.0000000,0.0000000,0.0000040
132.5765630,1.0002999,,-0.9665008,-0.2566461,0.0001658,0.0029948,-0.0029250,0.0013283,0.0022572,,,,1.0683104,-4.1310539,-10.7572956,0.0000000,0.0000000,0.0000000,0.0200060,0.0002031,0.0000000,0.0000000,0.0000203,0.0000000,0.0000000,0.0000000,0.0002031,0.0000000,0.0000000,0.0000203,0.0000000,0.0000000,0.0000000,0.0002031,0.0000000,0.0000000,0.0000203,0.0000203,0.0000000,0.0000000,0.0000040,0.0000000,0.0000000,0.0000000,0.0000203,0.0000000,0.0000000,0.0000040,0.0000000,0.0000000,0.0000000,0.0000203,0.0000000,0.0000000,0.0000040
132.5928390,,1.0000299,-0.9665008,-0.2566461,0.0001658,0.0029948,,,,0.0000000,0.0000000,0.0000000,1.0683104,-4.1310539,-10.7572956,0.0000000,0.0000000,0.0000000,0.1000030,0.0001990,0.0000000,0.0000000,0.0000199,0.0000000,0.0000000,0.0000000,0.0001990,0.0000000,0.0000000,0.0000199,0.0000000,0.0000000,0.0000000,0.0001990,0.0000000,0.0000000,0.0000199,0.0000199,0.0000000,0.0000000,0.0000040,0.0000000,0.0000000,0.0000000,0.0000199,0.0000000,0.0000000,0.0000040,0.0000000,0.0000000,0.0000000,0.0000199,0.0000000,0.0000000,0.0000040
132.6055640,1.0994500,,-0.9665008,-0.2566462,0.0001456,0.0029792,-0.0038047,0.0038074,0.0038065,,,,1.0683104,-4.1310539,-10.7572956,0.0000000,0.0000000,0.0000000,0.0219890,0.0001999,0.0000000,0.0000000,0.0000200,0.0000000,0.0000000,0.0000000,0.0001999,0.0000000,0.0000000,0.0000200,0.0000000,0.0000000,0.0000000,0.0001999,0.0000000,0.0000000,0.0000200,0.0000200,0.0000000,0.0000000,0.0000040,0.0000000,0.0000000,0.0000000,0.0000200,0.0000000,0.0000000,0.0000040,0.0000000,0.0000000,0.0000000,0.0000200,0.0000000,0.0000000,0.0000040
132.6187890,0.9998000,,-0.9665008,-0.2566462,0.0001268,0.0029784,-0.0047557,0.0013925,0.0053136,,,,1.0683104,-4.1310539,-10.7572956,0.0000000,0.0000000,0.0000000,0.0199960,0.0002007,0.0000000,0.0000000,0.0000200,0.0000000,0.0000000,0.0000000,0.0002007,0.0000000,0.0000000,0.0000200,0.0000000,0.0000000,0.0000000,0.0002007,0.0000000,0.0000000,0.0000200,0.0000200,0.0000000,0.0000000,0.0000040,0.0000000,0.0000000,0.0000000,0.0000200,0.0000000,0.0000000,0.0000040,0.0000000,0.0000000,0.0000000,0.0000200,0.0000000,0.0000000,0.0000040
132.6396610,1.0505501,,-0.9665008,-0.2566463,0.0000858,0.0029680,0.0025278,0.0008870,-0.0002805,,,,1.0683104,-4.1310539,-10.7572956,0.0000000,0.0000000,0.0000000,0.0210110,0.0002015,0.0000000,0.0000000,0.0000201,0.0000000,0.0000000,0.0000000,0.0002015,0.0000000,0.0000000,0.0000201,0.0000000,0.0000000,0.0000000,0.0002015,0.0000000,0.0000000,0.0000201,0.0000201,0.0000000,0.0000000,0.0000040,0.0000000,0.0000000,0.0000000,0.0000201,0.0000000,0.0000000,0.0000040,0.0000000,0.0000000,0.0000000,0.0000201,0.0000000,0.0000000,0.0000040
132.6595520,1.0000501,,-0.9665008,-0.2566465,0.0000529,0.0029617,0.0066350,0.0003825,0.0064439,,,,1.0683104,-4.1310539,-10.7572956,0.0000000,0.0000000,0.0000000,0.0200010,0.0002023,0.0000000,0.0000000,0.0000202,0.0000000,0.0000000,0.0000000,0.0002023,0.0000000,0.0000000,0.0000202,0.0000000,0.0000000,0.0000000,0.0002023,0.0000000,0.0000000,0.0000202,0.0000202,0.0000000,0.0000000,0.0000040,0.0000000,0.0000000,0.0000000,0.0000202,0.0000000,0.0000000,0.0000040,0.0000000,0.0000000,0.0000000,0.0000202,0.0000000,0.0000000,0.0000040
132.6804890,1.0496000,,-0.9665009,-0.2566465,0.0000533,0.0029506,0.0048129,0.0054937,0.0046792,,,,1.0683104,-4.1310539,-10.7572956,0.0000000,0.0000000,0.0000000,0.0209920,0.0002032,0.0000000,0.0000000,0.0000203,0.0000000,0.0000000,0.0000000,0.0002032,0.0000000,0.0000000,0.0000203,0.0000000,0.0000000,0.0000000,0.0002032,0.0000000,0.0000000,0.0000203,0.0000203,0.0000000,0.0000000,0.0000040,0.0000000,0.0000000,0.0000000,0.0000203,0.0000000,0.0000000,0.0000040,0.0000000,0.0000000,0.0000000,0.0000203,0.0000000,0.0000000,0.0000040
132.6966410,,0.9999900,-0.9665009,-0.2566465,0.0000533,0.0029506,,,,0.0000000,0.0000000,0.0000000,1.0683104,-4.1310539,-10.7572956,0.0000000,0.0000000,0.0000000,0.0999990,0.0001991,0.0000000,0.0000000,0.0000199,0.0000000,0.0000000,0.0000000,0.0001991,0.0000000,0.0000000,0.0000199,0.0000000,0.0000000,0.0000000,0.0001991,0.0000000,0.0000000,0.0000199,0.0000199,0.0000000,0.0000000,0.0000040,0.0000000,0.0000000,0.0000000,0.0000199,0.0000000,0.0000000,0.0000040,0.0000000,0.0000000,0.0000000,0.0000199,0.0000000,0.0000000,0.0000040
132.7101290,1.0999500,,-0.9665009,-0.2566464,0.0000784,0.0029507,0.0059007,0.0000155,0.0040409,,,,1.0683104,-4.1310539,-10.7572956,0.0000000,0.0000000,0.0000000,0.0219990,0.0002000,0.0000000,0.0000000,0.0000200,0.0000000,0.0000000,0.0000000,0.0002000,0.0000000,0.0000000,0.0000200,0.0000000,0.0000000,0.0000000,0.0002000,0.0000000,0.0000000,0.0000200,0.0000200,0.0000000,0.0000000,0.0000040,0.0000000,0.0000000,0.0000000,0.0000200,0.0000000,0.0000000,0.0000040,0.0000000,0.0000000,0.0000000,0.0000200,0.0000000,0.0000000,0.0000040
132.7236410,1.0498999,,-0.9665008,-0.2566463,0.0000932,0.0029743,0.0047280,0.0014726,0.0015246,,,,1.0683104,-4.1310539,-10.7572956,0.0000000,0.0000000,0.0000000,0.0209980,0.0002009,0.0000000,0.0000000,0.0000201,0.0000000,0.0000000,0.0000000,0.0002009,0.0000000,0.0000000,0.0000201,0.0000000,0.0000000,0.0000000,0.0002009,0.0000000,0.0000000,0.0000201,0.0000201,0.0000000,0.0000000,0.0000040,0.0000000,0.0000000,0.0000000,0.0000201,0.0000000,0.0000000,0.0000040,0.0000000,0.0000000,0.0000000,0.0000201,0.0000000,0.0000000,0.0000040
132.7436510,1.0007000,,-0.9665008,-0.2566464,0.0000800,0.0029953,0.0094670,0.0044060,-0.0031516,,,,1.0683104,-4.1310539,-10.7572956,0.0000000,0.0000000,0.0000000,0.0200140,0.0002017,0.0000000,0.0000000,0.0000201,0.0000000,0.0000000,0.0000000,0.0002017,0.0000000,0.0000000,0.0000201,0.0000000,0.0000000,0.0000000,0.0002017,0.0000000,0.0000000,0.0000201,0.0000201,0.0000000,0.0000000,0.0000040,0.0000000,0.0000000,0.0000000,0.0000201,0.0000000,0.0000000,0.0000040,0.0000000,0.0000000,0.0000000,0.0000201,0.0000000,0.0000000,0.0000040
132.7646910,1.0495000,,-0.9665006,-0.2566463,0.0000741,0.0030350,0.0069460,0.0025082,-0.0050014,,,,1.0683104,-4.1310539,-10.7572956,0.0000000,0.0000000,0.0000000,0.0209900,0.0002025,0.0000000,0.0000000,0.0000202,0.0000000,0.0000000,0.0000000,0.0002025,0.0000000,0.0000000,0.0000202,0.0000000,0.0000000,0.0000000,0.0002025,0.0000000,0.0000000,0.0000202,0.0000202,0.0000000,0.0000000,0.0000040,0.0000000,0.0000000,0.0000000,0.0000202,0.0000000,0.0000000,0.0000040,0.0000000,0.0000000,0.0000000,0.0000202,0.0000000,0.0000000,0.0000040
132.7854620,1.0501001,,-0.9665005,-0.2566464,0.0000618,0.0030730,0.0010163,0.0042753,-0.0076353,,,,1.0683104,-4.1310539,-10.7572956,0.0000000,0.0000000,0.0000000,0.0210020,0.0002034,0.0000000,0.0000000,0.0000203,0.0000000,0.0000000,0.0000000,0.0002034,0.0000000,0.0000000,0.0000203,0.0000000,0.0000000,0.0000000,0.0002034,0.0000000,0.0000000,0.0000203,0.0000203,0.0000000,0.0000000,0.0000040,0.0000000,0.0000000,0.0000000,0.0000203,0.0000000,0.0000000,0.0000040,0.0000000,0.0000000,0.0000000,0.0000203,0.0000000,0.0000000,0.0000040
132.8016500,,1.0200601,-0.9665005,-0.2566464,0.0000618,0.0030730,,,,0.0000000,0.0000000,0.0000000,1.0683104,-4.1310539,-10.7572956,0.0000000,0.0000000,0.0000000,0.1020060,0.0001993,0.0000000,0.0000000,0.0000199,0.0000000,0.0000000,0.0000000,0.0001993,0.0000000,0.0000000,0.0000199,0.0000000,0.0000000,0.0000000,0.0001993,0.0000000,0.0000000,0.0000199,0.0000199,0.0000000,0.0000000,0.0000040,0.0000000,0.0000000,0.0000000,0.0000199,0.0000000,0.0000000,0.0000040,0.0000000,0.0000000,0.0000000,0.0000199,0.0000000,0.0000000,0.0000040
132.8151620,1.0998499,,-0.9665005,-0.2566464,0.0000563,0.0030650,-0.0063278,0.0060821,-0.0074874,,,,1.0683104,-4.1310539,-10.7572956,0.0000000,0.0000000,0.0000000,0.0219970,0.0002002,0.0000000,0.0000000,0.0000200,0.0000000,0.0000000,0.0000000,0.0002002,0.0000000,0.0000000,0.0000200,0.0000000,0.0000000,0.0000000,0.0002002,0.0000000,0.0000000,0.0000200,0.0000200,0.0000000,0.0000000,0.0000040,0.0000000,0.0000000,0.0000000,0.0000200,0.0000000,0.0000000,0.0000040,0.0000000,0.0000000,0.0000000,0.0000200,0.0000000,0.0000000,0.0000040
132.8286320,1.0498501,,-0.9665005,-0.2566464,0.0000702,0.0030627,-0.0041099,0.0043151,-0.0064369,,,,1.0683104,-4.1310539,-10.7572956,0.0000000,0.0000000,0.0000000,0.0209970,0.0002010,0.0000000,0.0000000,0.0000201,0.0000000,0.0000000,0.0000000,0.0002010,0.0000000,0.0000000,0.0000201,0.0000000,0.0000000,0.0000000,0.0002010,0.0000000,0.0000000,0.0000201,0.0000201,0.0000000,0.0000000,0.0000040,0.0000000,0.0000000,0.0000000,0.0000201,0.0000000,0.0000000,0.0000040,0.0000000,0.0000000,0.0000000,0.0000201,0.0000000,0.0000000,0.0000040
132.8486680,1.0004500,,-0.9665006,-0.2566463,0.0000921,0.0030504,-0.0071133,-0.0053726,-0.0044468,,,,1.0683104,-4.1310539,-10.7572956,0.0000000,0.0000000,0.0000000,0.0200090,0.0002018,0.0000000,0.0000000,0.0000202,0.0000000,0.0000000,0.0000000,0.0002018,0.0000000,0.0000000,0.0000202,0.0000000,0.0000000,0.0000000,0.0002018,0.0000000,0.0000000,0.0000202,0.0000202,0.0000000,0.0000000,0.0000040,0.0000000,0.0000000,0.0000000,0.0000202,0.0000000,0.0000000,0.0000040,0.0000000,0.0000000,0.0000000,0.0000202,0.0000000,0.0000000,0.0000040
132.8695790,1.0497501,,-0.9665006,-0.2566462,0.0001109,0.0030548,-0.0042128,-0.0001839,0.0070463,,,,1.0683104,-4.1310539,-10.7572956,0.0000000,0.0000000,0.0000000,0.0209950,0.0002027,0.0000000,0.0000000,0.0000202,0.0000000,0.0000000,0.0000000,0.0002027,0.0000000,0.0000000,0.0000202,0.0000000,0.0000000,0.0000000,0.0002027,0.0000000,0.0000000,0.0000202,0.0000202,0.0000000,0.0000000,0.0000040,0.0000000,0.0000000,0.0000000,0.0000202,0.0000000,0.0000000,0.0000040,0.0000000,0.0000000,0.0000000,0.0000202,0.0000000,0.0000000,0.0000040
132.8917640,,1.0099300,-0.9665006,-0.2566462,0.0001298,0.0030542,,,,0.0000000,0.0000000,0.0000000,1.0683104,-4.1310539,-10.7572956,0.0000000,0.0000000,0.0000000,0.1009930,0.0001986,0.0000000,0.0000000,0.0000198,0.0000000,0.0000000,0.0000000,0.0001986,0.0000000,0.0000000,0.0000198,0.0000000,0.0000000,0.0000000,0.0001986,0.0000000,0.0000000,0.0000198,0.0000198,0.0000000,0.0000000,0.0000040,0.0000000,0.0000000,0.0000000,0.0000198,0.0000000,0.0000000,0.0000040,0.0000000,0.0000000,0.0000000,0.0000198,0.0000000,0.0000000,0.0000040
132.9053660,1.0998499,,-0.9665006,-0.2566462,0.0001298,0.0030542,-0.0039603,-0.0005192,0.0022948,,,,1.0683104,-4.1310539,-10.7572956,0.0000000,0.0000000,0.0000000,0.0219970,0.0001995,0.0000000,0.0000000,0.0000199,0.0000000,0.0000000,0.0000000,0.0001995,0.0000000,0.0000000,0.0000199,0.0000000,0.0000000,0.0000000,0.0001995,0.0000000,0.0000000,0.0000199,0.0000199,0.0000000,0.0000000,0.0000040,0.0000000,0.0000000,0.0000000,0.0000199,0.0000000,0.0000000,0.0000040,0.0000000,0.0000000,0.0000000,0.0000199,0.0000000,0.0000000,0.0000040
132.9188010,1.3499000,,-0.9665006,-0.2566462,0.0001322,0.0030603,0.0012700,-0.0070269,-0.0022782,,,,1.0683104,-4.1310539,-10.7572956,0.0000000,0.0000000,0.0000000,0.0269980,0.0002006,0.0000000,0.0000000,0.0000200,0.0000000,0.0000000,0.0000000,0.0002006,0.0000000,0.0000000,0.0000200,0.0000000,0.0000000,0.0000000,0.0002006,0.0000000,0.0000000,0.0000200,0.0000200,0.0000000,0.0000000,0.0000040,0.0000000,0.0000000,0.0000000,0.0000200,0.0000000,0.0000000,0.0000040,0.0000000,0.0000000,0.0000000,0.0000200,0.0000000,0.0000000,0.0000040
132.9397360,1.0505000,,-0.9665006,-0.2566462,0.0001355,0.0030604,0.0024279,-0.0049096,-0.0001702,,,,1.0683104,-4.1310539,-10.7572956,0.0000000,0.0000000,0.0000000,0.0210100,0.0002014,0.0000000,0.0000000,0.0000201,0.0000000,0.0000000,0.0000000,0.0002014,0.0000000,0.0000000,0.0000201,0.0000000,0.0000000,0.0000000,0.0002014,0.0000000,0.0000000,0.0000201,0.0000201,0.0000000,0.0000000,0.0000040,0.0000000,0.0000000,0.0000000,0.0000201,0.0000000,0.0000000,0.0000040,0.0000000,0.0000000,0.0000000,0.0000201,0.0000000,0.0000000,0.0000040
132.9596640,0.9996000,,-0.9665005,-0.2566462,0.0001430,0.0030710,0.0057000,-0.0043164,-0.0008251,,,,1.0683104,-4.1310539,-10.7572956,0.0000000,0.0000000,0.0000000,0.0199920,0.0002022,0.0000000,0.0000000,0.0000202,0.0000000,0.0000000,0.0000000,0.0002022,0.0000000,0.0000000,0.0000202,0.0000000,0.0000000,0.0000000,0.0002022,0.0000000,0.0000000,0.0000202,0.0000202,0.0000000,0.0000000,0.0000040,0.0000000,0.0000000,0.0000000,0.0000202,0.0000000,0.0000000,0.0000040,0.0000000,0.0000000,0.0000000,0.0000202,0.0000000,0.0000000,0.0000040
132.9798760,1.0004500,,-0.9665005,-0.2566461,0.0001592,0.0030738,0.0019879,-0.0103674,-0.0033499,,,,1.0683104,-4.1310539,-10.7572956,0.0000000,0.0000000,0.0000000,0.0200090,0.0002030,0.0000000,0.0000000,0.0000203,0.0000000,0.0000000,0.0000000,0.0002030,0.0000000,0.0000000,0.0000203,0.0000000,0.0000000,0.0000000,0.0002030,0.0000000,0.0000000,0.0000203,0.0000203,0.0000000,0.0000000,0.0000040,0.0000000,0.0000000,0.0000000,0.0000203,0.0000000,0.0000000,0.0000040,0.0000000,0.0000000,0.0000000,0.0000203,0.0000000,0.0000000,0.0000040
132.9955780,,1.0000700,-0.9665005,-0.2566461,0.0001592,0.0030738,,,,0.0000000,0.0000000,0.0000000,1.0683104,-4.1310539,-10.7572956,0.0000000,0.0000000,0.0000000,0.1000070,0.0001990,0.0000000,0.0000000,0.0000199,0.0000000,0.0000000,0.0000000,0.0001990,0.0000000,0.0000000,0.0000199,0.0000000,0.0000000,0.0000000,0.0001990,0.0000000,0.0000000,0.0000199,0.0000199,0.0000000,0.0000000,0.0000040,0.0000000,0.0000000,0.0000000,0.0000199,0.0000000,0.0000000,0.0000040,0.0000000,0.0000000,0.0000000,0.0000199,0.0000000,0.0000000,0.0000040
133.0094710,0.9995500,,-0.9665005,-0.2566461,0.0001663,0.0030709,0.0047705,-0.0082736,0.0039327,,,,1.0683104,-4.1310539,-10.7572956,0.0000000,0.0000000,0.0000000,0.0199910,0.0001998,0.0000000,0.0000000,0.0000200,0.0000000,0.0000000,0.0000000,0.0001998,0.0000000,0.0000000,0.0000200,0.0000000,0.0000000,0.0000000,0.0001998,0.0000000,0.0000000,0.0000200,0.0000200,0.0000000,0.0000000,0.0000040,0.0000000,0.0000000,0.0000000,0.0000200,0.0000000,0.0000000,0.0000040,0.0000000,0.0000000,0.0000000,0.0000200,0.0000000,0.0000000,0.0000040
133.0224590,1.1499500,,-0.9665004,-0.2566461,0.0001614,0.0031021,0.0093051,-0.0093629,-0.0012151,,,,1.0683104,-4.1310539,-10.7572956,0.0000000,0.0000000,0.0000000,0.0229990,0.0002007,0.0000000,0.0000000,0.0000200,0.0000000,0.0000000,0.0000000,0.0002007,0.0000000,0.0000000,0.0000200,0.0000000,0.0000000,0.0000000,0.0002007,0.0000000,0.0000000,0.0000200,0.0000200,0.0000000,0.0000000,0.0000040,0.0000000,0.0000000,0.0000000,0.0000200,0.0000000,0.0000000,0.0000040,0.0000000,0.0000000,0.0000000,0.0000200,0.0000000,0.0000000,0.0000040
133.0437050,1.0501001,,-0.9664595,-0.2567971,0.0001875,0.0033256,-0.0085005,0.0139419,-0.0387011,,,,1.0683104,-4.1310539,-10.7572956,0.0000000,0.0000000,0.0000000,0.0210020,0.0002016,0.0000000,0.0000000,0.0000201,0.0000000,0.0000000,0.0000000,0.0002016,0.0000000,0.0000000,0.0000201,0.0000000,0.0000000,0.0000000,0.0002016,0.0000000,0.0000000,0.0000201,0.0000201,0.0000000,0.0000000,0.0000040,0.0000000,0.0000000,0.0000000,0.0000201,0.0000000,0.0000000,0.0000040,0.0000000,0.0000000,0.0000000,0.0000201,0.0000000,0.0000000,0.0000040
133.0650650,1.0000000,,-0.9664149,-0.2569581,0.0002888,0.0037781,0.0079797,-0.0447487,-0.0081354,,,,1.0683104,-4.1310539,-10.7572956,0.0000000,0.0000000,0.0000000,0.0200000,0.0002024,0.0000000,0.0000000,0.0000202,0.0000000,0.0000000,0.0000000,0.0002024,0.0000000,0.0000000,0.0000202,0.0000000,0.0000000,0.0000000,0.0002024,0.0000000,0.0000000,0.0000202,0.0000202,0.0000000,0.0000000,0.0000040,0.0000000,0.0000000,0.0000000,0.0000202,0.0000000,0.0000000,0.0000040,0.0000000,0.0000000,0.0000000,0.0000202,0.0000000,0.0000000,0.0000040
133.0837490,1.0000000,,-0.9664011,-0.2570038,0.0003734,0.0041861,0.0208355,-0.0507710,0.0056827,,,,1.0683104,-4.1310539,-10.7572956,0.0000000,0.0000000,0.0000000,0.0200000,0.0002032,0.0000000,0.0000000,0.0000203,0.0000000,0.0000000,0.0000000,0.0002032,0.0000000,0.0000000,0.0000203,0.0000000,0.0000000,0.0000000,0.0002032,0.0000000,0.0000000,0.0000203,0.0000203,0.0000000,0.0000000,0.0000040,0.0000000,0.0000000,0.0000000,0.0000203,0.0000000,0.0000000,0.0000040,0.0000000,0.0000000,0.0000000,0.0000203,0.0000000,0.0000000,0.0000040
133.0997130,,0.9999400,-0.9664011,-0.2570038,0.0003734,0.0041861,,,,0.0000000,0.0000000,0.0000000,1.0683104,-4.1310539,-10.7572956,0.0000000,0.0000000,0.0000000,0.0999940,0.0001991,0.0000000,0.0000000,0.0000199,0.0000000,0.0000000,0.0000000,0.0001991,0.0000000,0.0000000,0.0000199,0.0000000,0.0000000,0.0000000,0.0001991,0.0000000,0.0000000,0.0000199,0.0000199,0.0000000,0.0000000,0.0000040,0.0000000,0.0000000,0.0000000,0.0000199,0.0000000,0.0000000,0.0000040,0.0000000,0.0000000,0.0000000,0.0000199,0.0000000,0.0000000,0.0000040
133.1135150,1.0000501,,-0.9664088,-0.2569742,0.0004784,0.0042188,-0.0050012,0.0313696,0.0445741,,,,1.0683104,-4.1310539,-10.7572956,0.0000000,0.0000000,0.0000000,0.0200010,0.0001999,0.0000000,0.0000000,0.0000200,0.0000000,0.0000000,0.0000000,0.0001999,0.0000000,0.0000000,0.0000200,0.0000000,0.0000000,0.0000000,0.0001999,0.0000000,0.0000000,0.0000200,0.0000200,0.0000000,0.0000000,0.0000040,0.0000000,0.0000000,0.0000000,0.0000200,0.0000000,0.0000000,0.0000040,0.0000000,0.0000000,0.0000000,0.0000200,0.0000000,0.0000000,0.0000040
133.1280950,1.1503500,,-0.9664264,-0.2569099,0.0005571,0.0041255,0.0288180,0.1156985,-0.0582946,,,,1.0683322,-4.1310768,-10.7572803,0.0019016,-0.0019915,0.0013198,0.0230070,0.0002008,0.0000000,0.0000000,0.0000201,0.0000000,0.0000000,0.0000000,0.0002008,0.0000000,0.0000000,0.0000201,0.0000000,0.0000000,0.0000000,0.0002008,0.0000000,0.0000000,0.0000201,0.0000201,0.0000000,0.0000000,0.0000040,0.0000000,0.0000000,0.0000000,0.0000201,0.0000000,0.0000000,0.0000040,0.0000000,0.0000000,0.0000000,0.0000201,0.0000000,0.0000000,0.0000040
133.1467200,0.9996000,,-0.9664429,-0.2568441,0.0005161,0.0043310,0.0129747,0.0975145,-0.0618774,,,,1.0683821,-4.1311321,-10.7572422,0.0030986,-0.0035650,0.0025403,0.0199920,0.0002016,0.0000000,0.0000000,0.0000201,0.0000000,0.0000000,0.0000000,0.0002016,0.0000000,0.0000000,0.0000201,0.0000000,0.0000000,0.0000000,0.0002016,0.0000000,0.0000000,0.0000201,0.0000201,0.0000000,0.0000000,0.0000040,0.0000000,0.0000000,0.0000000,0.0000201,0.0000000,0.0000000,0.0000040,0.0000000,0.0000000,0.0000000,0.0000201,0.0000000,0.0000000,0.0000040
133.1666940,1.0005001,,-0.9664325,-0.2568760,0.0007010,0.0047297,-0.0630622,0.0624902,-0.0065475,,,,1.0683821,-4.1311321,-10.7572422,0.0000000,0.0000000,0.0000000,0.0200100,0.0002024,0.0000000,0.0000000,0.0000202,0.0000000,0.0000000,0.0000000,0.0002024,0.0000000,0.0000000,0.0000202,0.0000000,0.0000000,0.0000000,0.0002024,0.0000000,0.0000000,0.0000202,0.0000202,0.0000000,0.0000000,0.0000040,0.0000000,0.0000000,0.0000000,0.0000202,0.0000000,0.0000000,0.0000040,0.0000000,0.0000000,0.0000000,0.0000202,0.0000000,0.0000000,0.0000040
133.1879540,1.0495499,,-0.9664338,-0.2568646,0.0006583,0.0050662,0.0406811,0.1416119,-0.1024177,,,,1.0684055,-4.1311550,-10.7572203,0.0022254,-0.0021765,0.0021208,0.0209910,0.0002033,0.0000000,0.0000000,0.0000203,0.0000000,0.0000000,0.0000000,0.0002033,0.0000000,0.0000000,0.0000203,0.0000000,0.0000000,0.0000000,0.0002033,0.0000000,0.0000000,0.0000203,0.0000203,0.0000000,0.0000000,0.0000040,0.0000000,0.0000000,0.0000000,0.0000203,0.0000000,0.0000000,0.0000040,0.0000000,0.0000000,0.0000000,0.0000203,0.0000000,0.0000000,0.0000040
133.2029460,,1.0199800,-0.9664338,-0.2568646,0.0006583,0.0050662,,,,-0.2498339,-0.1428972,-0.0003828,1.0634258,-4.1340003,-10.7572298,0.0017281,-0.0024606,0.0021198,0.1019980,0.0001992,0.0000000,0.0000000,0.0000199,0.0000000,0.0000000,0.0000000,0.0001992,0.0000000,0.0000000,0.0000199,0.0000000,0.0000000,0.0000000,0.0001992,0.0000000,0.0000000,0.0000199,0.0000199,0.0000000,0.0000000,0.0000040,0.0000000,0.0000000,0.0000000,0.0000199,0.0000000,0.0000000,0.0000040,0.0000000,0.0000000,0.0000000,0.0000199,0.0000000,0.0000000,0.0000040
133.2169210,1.1000000,,-0.9664910,-0.2566363,0.0006403,0.0056554,-0.0582956,-0.1205011,0.2788311,,,,1.0634367,-4.1340356,-10.7572508,-0.0007259,-0.0007302,-0.0039863,0.0220000,0.0002001,0.0000000,0.0000000,0.0000200,0.0000000,0.0000000,0.0000000,0.0002001,0.0000000,0.0000000,0.0000200,0.0000000,0.0000000,0.0000000,0.0002001,0.0000000,0.0000000,0.0000200,0.0000200,0.0000000,0.0000000,0.0000040,0.0000000,0.0000000,0.0000000,0.0000200,0.0000000,0.0000000,0.0000040,0.0000000,0.0000000,0.0000000,0.0000200,0.0000000,0.0000000,0.0000040
133.2298380,1.0006001,,-0.9665011,-0.2565857,0.0010982,0.0061250,-0.1079442,-0.1777432,0.1686666,,,,1.0633856,-4.1340299,-10.7573643,-0.0043836,0.0013248,-0.0073195,0.0200120,0.0002009,0.0000000,0.0000000,0.0000201,0.0000000,0.0000000,0.0000000,0.0002009,0.0000000,0.0000000,0.0000201,0.0000000,0.0000000,0.0000000,0.0002009,0.0000000,0.0000000,0.0000201,0.0000201,0.0000000,0.0000000,0.0000040,0.0000000,0.0000000,0.0000000,0.0000201,0.0000000,0.0000000,0.0000040,0.0000000,0.0000000,0.0000000,0.0000201,0.0000000,0.0000000,0.0000040
133.2498480,0.9998500,,-0.9664835,-0.2566433,0.0014045,0.0064348,-0.1644000,-0.2594038,0.0088481,,,,1.0632436,-4.1339746,-10.7575121,-0.0098123,0.0041995,-0.0074301,0.0199970,0.0002017,0.0000000,0.0000000,0.0000201,0.0000000,0.0000000,0.0000000,0.0002017,0.0000000,0.0000000,0.0000201,0.0000000,0.0000000,0.0000000,0.0002017,0.0000000,0.0000000,0.0000201,0.0000201,0.0000000,0.0000000,0.0000040,0.0000000,0.0000000,0.0000000,0.0000201,0.0000000,0.0000000,0.0000040,0.0000000,0.0000000,0.0000000,0.0000201,0.0000000,0.0000000,0.0000040
133.2694170,0.9995500,,-0.9664627,-0.2567120,0.0016922,0.0067476,-0.0288705,-0.4348624,0.0575933,,,,1.0629992,-4.1338177,-10.7576714,-0.0146346,0.0114739,-0.0084605,0.0199910,0.0002025,0.0000000,0.0000000,0.0000202,0.0000000,0.0000000,0.0000000,0.0002025,0.0000000,0.0000000,0.0000202,0.0000000,0.0000000,0.0000000,0.0002025,0.0000000,0.0000000,0.0000202,0.0000202,0.0000000,0.0000000,0.0000040,0.0000000,0.0000000,0.0000000,0.0000202,0.0000000,0.0000000,0.0000040,0.0000000,0.0000000,0.0000000,0.0000202,0.0000000,0.0000000,0.0000040
133.2907400,1.0499500,,-0.9664395,-0.2567860,0.0018069,0.0072011,-0.0853428,0.2394398,0.0900149,,,,1.0627017,-4.1336317,-10.7578697,-0.0137085,0.0062445,-0.0104255,0.0209990,0.0002034,0.0000000,0.0000000,0.0000203,0.0000000,0.0000000,0.0000000,0.0002034,0.0000000,0.0000000,0.0000203,0.0000000,0.0000000,0.0000000,0.0002034,0.0000000,0.0000000,0.0000203,0.0000203,0.0000000,0.0000000,0.0000040,0.0000000,0.0000000,0.0000000,0.0000203,0.0000000,0.0000000,0.0000040,0.0000000,0.0000000,0.0000000,0.0000203,0.0000000,0.0000000,0.0000040
133.3067240,,1.0200100,-0.9664395,-0.2567860,0.0018069,0.0072011,,,,-0.1535599,-0.0878009,-0.0000364,1.0596553,-4.1353893,-10.7578573,-0.0140127,0.0060690,-0.0104243,0.1020010,0.0001993,0.0000000,0.0000000,0.0000199,0.0000000,0.0000000,0.0000000,0.0001993,0.0000000,0.0000000,0.0000199,0.0000000,0.0000000,0.0000000,0.0001993,0.0000000,0.0000000,0.0000199,0.0000199,0.0000000,0.0000000,0.0000040,0.0000000,0.0000000,0.0000000,0.0000199,0.0000000,0.0000000,0.0000040,0.0000000,0.0000000,0.0000000,0.0000199,0.0000000,0.0000000,0.0000040
133.3205560,1.1000500,,-0.9664464,-0.2567612,0.0017351,0.0071923,-0.0892947,0.4561915,0.1423662,,,,1.0593828,-4.1353621,-10.7581224,-0.0107595,-0.0035776,-0.0137053,0.0220010,0.0002002,0.0000000,0.0000000,0.0000200,0.0000000,0.0000000,0.0000000,0.0002002,0.0000000,0.0000000,0.0000200,0.0000000,0.0000000,0.0000000,0.0002002,0.0000000,0.0000000,0.0000200,0.0000200,0.0000000,0.0000000,0.0000040,0.0000000,0.0000000,0.0000000,0.0000200,0.0000000,0.0000000,0.0000040,0.0000000,0.0000000,0.0000000,0.0000200,0.0000000,0.0000000,0.0000040
133.3338770,1.0504000,,-0.9664634,-0.2567171,0.0016796,0.0064212,-0.0567323,0.2303159,-0.0040428,,,,1.0591711,-4.1354876,-10.7584105,-0.0093928,-0.0083703,-0.0136847,0.0210080,0.0002010,0.0000000,0.0000000,0.0000201,0.0000000,0.0000000,0.0000000,0.0002010,0.0000000,0.0000000,0.0000201,0.0000000,0.0000000,0.0000000,0.0002010,0.0000000,0.0000000,0.0000201,0.0000201,0.0000000,0.0000000,0.0000040,0.0000000,0.0000000,0.0000000,0.0000201,0.0000000,0.0000000,0.0000040,0.0000000,0.0000000,0.0000000,0.0000201,0.0000000,0.0000000,0.0000040
133.3538780,0.9998500,,-0.9664445,-0.2567990,0.0017601,0.0059804,-0.0560837,-0.1248628,-0.0562511,,,,1.0589612,-4.1356392,-10.7586727,-0.0115984,-0.0067716,-0.0125284,0.0199970,0.0002018,0.0000000,0.0000000,0.0000202,0.0000000,0.0000000,0.0000000,0.0002018,0.0000000,0.0000000,0.0000202,0.0000000,0.0000000,0.0000000,0.0002018,0.0000000,0.0000000,0.0000202,0.0000202,0.0000000,0.0000000,0.0000040,0.0000000,0.0000000,0.0000000,0.0000202,0.0000000,0.0000000,0.0000040,0.0000000,0.0000000,0.0000000,0.0000202,0.0000000,0.0000000,0.0000040
133.3733230,0.9997000,,-0.9664442,-0.2568015,0.0023090,0.0057149,-0.0462075,0.0319518,0.0201838,,,,1.0589612,-4.1356392,-10.7586727,0.0000000,0.0000000,0.0000000,0.0199940,0.0002027,0.0000000,0.0000000,0.0000202,0.0000000,0.0000000,0.0000000,0.0002027,0.0000000,0.0000000,0.0000202,0.0000000,0.0000000,0.0000000,0.0002027,0.0000000,0.0000000,0.0000202,0.0000202,0.0000000,0.0000000,0.0000040,0.0000000,0.0000000,0.0000000,0.0000202,0.0000000,0.0000000,0.0000040,0.0000000,0.0000000,0.0000000,0.0000202,0.0000000,0.0000000,0.0000040
133.3982280,,1.0100100,-0.9664290,-0.2568612,0.0025186,0.0055312,,,,-0.2056520,-0.1175961,0.0003619,1.0548902,-4.1379700,-10.7586489,-0.0004065,-0.0002327,0.0000023,0.1010010,0.0001986,0.0000000,0.0000000,0.0000198,0.0000000,0.0000000,0.0000000,0.0001986,0.0000000,0.0000000,0.0000198,0.0000000,0.0000000,0.0000000,0.0001986,0.0000000,0.0000000,0.0000198,0.0000198,0.0000000,0.0000000,0.0000040,0.0000000,0.0000000,0.0000000,0.0000198,0.0000000,0.0000000,0.0000040,0.0000000,0.0000000,0.0000000,0.0000198,0.0000000,0.0000000,0.0000040
133.4116330,1.1004000,,-0.9664290,-0.2568612,0.0025186,0.0055312,-0.0008412,-0.1805420,-0.1127414,,,,1.0548595,-4.1379375,-10.7586212,-0.0023760,0.0031836,0.0025310,0.0220080,0.0001995,0.0000000,0.0000000,0.0000199,0.0000000,0.0000000,0.0000000,0.0001995,0.0000000,0.0000000,0.0000199,0.0000000,0.0000000,0.0000000,0.0001995,0.0000000,0.0000000,0.0000199,0.0000199,0.0000000,0.0000000,0.0000040,0.0000000,0.0000000,0.0000000,0.0000199,0.0000000,0.0000000,0.0000040,0.0000000,0.0000000,0.0000000,0.0000199,0.0000000,0.0000000,0.0000040
133.4248950,1.4495500,,-0.9664410,-0.2568141,0.0025039,0.0056364,-0.0253611,-0.0550232,-0.1389284,,,,1.0547704,-4.1378312,-10.7584896,-0.0037749,0.0041645,0.0065792,0.0289910,0.0002007,0.0000000,0.0000000,0.0000200,0.0000000,0.0000000,0.0000000,0.0002007,0.0000000,0.0000000,0.0000200,0.0000000,0.0000000,0.0000000,0.0002007,0.0000000,0.0000000,0.0000200,0.0000200,0.0000000,0.0000000,0.0000040,0.0000000,0.0000000,0.0000000,0.0000200,0.0000000,0.0000000,0.0000040,0.0000000,0.0000000,0.0000000,0.0000200,0.0000000,0.0000000,0.0000040
133.4461210,1.0000501,,-0.9664555,-0.2567537,0.0025271,0.0059085,0.0077357,0.0113449,0.0489059,,,,1.0546973,-4.1377492,-10.7583675,-0.0035357,0.0040542,0.0055980,0.0200010,0.0002015,0.0000000,0.0000000,0.0000201,0.0000000,0.0000000,0.0000000,0.0002015,0.0000000,0.0000000,0.0000201,0.0000000,0.0000000,0.0000000,0.0002015,0.0000000,0.0000000,0.0000201,0.0000201,0.0000000,0.0000000,0.0000040,0.0000000,0.0000000,0.0000000,0.0000201,0.0000000,0.0000000,0.0000040,0.0000000,0.0000000,0.0000000,0.0000201,0.0000000,0.0000000,0.0000040
133.4648250,1.0000000,,-0.9664631,-0.2567251,0.0023133,0.0059814,0.0338895,-0.0592232,0.1325691,,,,1.0546263,-4.1376543,-10.7582817,-0.0035550,0.0054464,0.0029610,0.0200000,0.0002023,0.0000000,0.0000000,0.0000202,0.0000000,0.0000000,0.0000000,0.0002023,0.0000000,0.0000000,0.0000202,0.0000000,0.0000000,0.0000000,0.0002023,0.0000000,0.0000000,0.0000202,0.0000202,0.0000000,0.0000000,0.0000040,0.0000000,0.0000000,0.0000000,0.0000202,0.0000000,0.0000000,0.0000040,0.0000000,0.0000000,0.0000000,0.0000202,0.0000000,0.0000000,0.0000040
133.4849010,1.0000000,,-0.9664749,-0.2566931,0.0022414,0.0054427,0.0575789,-0.0299244,0.1270527,,,,1.0545621,-4.1375341,-10.7582474,-0.0028703,0.0065612,0.0004253,0.0200000,0.0002031,0.0000000,0.0000000,0.0000203,0.0000000,0.0000000,0.0000000,0.0002031,0.0000000,0.0000000,0.0000203,0.0000000,0.0000000,0.0000000,0.0002031,0.0000000,0.0000000,0.0000203,0.0000203,0.0000000,0.0000000,0.0000040,0.0000000,0.0000000,0.0000000,0.0000203,0.0000000,0.0000000,0.0000040,0.0000000,0.0000000,0.0000000,0.0000203,0.0000000,0.0000000,0.0000040
133.5010270,,1.0000100,-0.9664749,-0.2566931,0.0022414,0.0053281,,,,-0.2501361,-0.1519172,0.0003593,1.0495902,-4.1405663,-10.7582483,-0.0033668,0.0062584,0.0004252,0.1000010,0.0001990,0.0000000,0.0000000,0.0000199,0.0000000,0.0000000,0.0000000,0.0001990,0.0000000,0.0000000,0.0000199,0.0000000,0.0000000,0.0000000,0.0001990,0.0000000,0.0000000,0.0000199,0.0000199,0.0000000,0.0000000,0.0000040,0.0000000,0.0000000,0.0000000,0.0000199,0.0000000,0.0000000,0.0000040,0.0000000,0.0000000,0.0000000,0.0000199,0.0000000,0.0000000,0.0000040
133.5156320,1.0002501,,-0.9664696,-0.2567163,0.0021481,0.0053281,0.0575141,0.1512518,0.0019724,,,,1.0495479,-4.1404619,-10.7582407,-0.0008667,0.0042029,0.0003496,0.0200050,0.0001998,0.0000000,0.0000000,0.0000200,0.0000000,0.0000000,0.0000000,0.0001998,0.0000000,0.0000000,0.0000200,0.0000000,0.0000000,0.0000000,0.0001998,0.0000000,0.0000000,0.0000200,0.0000200,0.0000000,0.0000000,0.0000040,0.0000000,0.0000000,0.0000000,0.0000200,0.0000000,0.0000000,0.0000040,0.0000000,0.0000000,0.0000000,0.0000200,0.0000000,0.0000000,0.0000040
133.5289570,1.1996000,,-0.9665163,-0.2565445,0.0020445,0.0051971,0.0906162,0.1947970,0.1430531,,,,1.0495772,-4.1403966,-10.7582741,0.0033160,0.0012538,-0.0031369,0.0239920,0.0002008,0.0000000,0.0000000,0.0000201,0.0000000,0.0000000,0.0000000,0.0002008,0.0000000,0.0000000,0.0000201,0.0000000,0.0000000,0.0000000,0.0002008,0.0000000,0.0000000,0.0000201,0.0000201,0.0000000,0.0000000,0.0000040,0.0000000,0.0000000,0.0000000,0.0000201,0.0000000,0.0000000,0.0000040,0.0000000,0.0000000,0.0000000,0.0000201,0.0000000,0.0000000,0.0000040
133.5498430,1.0501500,,-0.9665540,-0.2564101,0.0022069,0.0046895,0.0616655,0.1025407,0.0768748,,,,1.0496697,-4.1403832,-10.7583570,0.0054975,0.0000382,-0.0047758,0.0210030,0.0002016,0.0000000,0.0000000,0.0000201,0.0000000,0.0000000,0.0000000,0.0002016,0.0000000,0.0000000,0.0000201,0.0000000,0.0000000,0.0000000,0.0002016,0.0000000,0.0000000,0.0000201,0.0000201,0.0000000,0.0000000,0.0000040,0.0000000,0.0000000,0.0000000,0.0000201,0.0000000,0.0000000,0.0000040,0.0000000,0.0000000,0.0000000,0.0000201,0.0000000,0.0000000,0.0000040
133.5696610,1.0003500,,-0.9665706,-0.2563445,0.0023410,0.0048168,-0.0134482,0.2864236,-0.0011439,,,,1.0498058,-4.1404338,-10.7584534,0.0081036,-0.0050724,-0.0048126,0.0200070,0.0002024,0.0000000,0.0000000,0.0000202,0.0000000,0.0000000,0.0000000,0.0002024,0.0000000,0.0000000,0.0000202,0.0000000,0.0000000,0.0000000,0.0002024,0.0000000,0.0000000,0.0000202,0.0000202,0.0000000,0.0000000,0.0000040,0.0000000,0.0000000,0.0000000,0.0000202,0.0000000,0.0000000,0.0000040,0.0000000,0.0000000,0.0000000,0.0000202,0.0000000,0.0000000,0.0000040
133.5905770,1.0496501,,-0.9665976,-0.2562434,0.0023473,0.0047896,0.0016606,0.2443699,0.0025790,,,,1.0500028,-4.1405869,-10.7585554,0.0106746,-0.0095108,-0.0049205,0.0209930,0.0002033,0.0000000,0.0000000,0.0000203,0.0000000,0.0000000,0.0000000,0.0002033,0.0000000,0.0000000,0.0000203,0.0000000,0.0000000,0.0000000,0.0002033,0.0000000,0.0000000,0.0000203,0.0000203,0.0000000,0.0000000,0.0000040,0.0000000,0.0000000,0.0000000,0.0000203,0.0000000,0.0000000,0.0000040,0.0000000,0.0000000,0.0000000,0.0000203,0.0000000,0.0000000,0.0000040
133.6066660,,0.9999700,-0.9665976,-0.2562434,0.0023473,0.0047896,,,,-0.2241383,-0.1369568,0.0004639,1.0455292,-4.1433148,-10.7585402,0.0102279,-0.0097832,-0.0049190,0.0999970,0.0001992,0.0000000,0.0000000,0.0000199,0.0000000,0.0000000,0.0000000,0.0001992,0.0000000,0.0000000,0.0000199,0.0000000,0.0000000,0.0000000,0.0001992,0.0000000,0.0000000,0.0000199,0.0000199,0.0000000,0.0000000,0.0000040,0.0000000,0.0000000,0.0000000,0.0000199,0.0000000,0.0000000,0.0000040,0.0000000,0.0000000,0.0000000,0.0000199,0.0000000,0.0000000,0.0000040
133.6203760,1.0999500,,-0.9666005,-0.2562335,0.0024645,0.0046625,0.0361010,0.0339739,-0.0478057,,,,1.0457660,-4.1435328,-10.7586365,0.0112955,-0.0100472,-0.0038769,0.0219990,0.0002001,0.0000000,0.0000000,0.0000200,0.0000000,0.0000000,0.0000000,0.0002001,0.0000000,0.0000000,0.0000200,0.0000000,0.0000000,0.0000000,0.0002001,0.0000000,0.0000000,0.0000200,0.0000200,0.0000000,0.0000000,0.0000040,0.0000000,0.0000000,0.0000000,0.0000200,0.0000000,0.0000000,0.0000040,0.0000000,0.0000000,0.0000000,0.0000200,0.0000000,0.0000000,0.0000040
133.6337830,1.0499500,,-0.9666240,-0.2561460,0.0023356,0.0046752,-0.0149466,-0.0589637,0.0346680,,,,1.0457660,-4.1435328,-10.7586365,0.0000000,0.0000000,0.0000000,0.0209990,0.0002009,0.0000000,0.0000000,0.0000201,0.0000000,0.0000000,0.0000000,0.0002009,0.0000000,0.0000000,0.0000201,0.0000000,0.0000000,0.0000000,0.0002009,0.0000000,0.0000000,0.0000201,0.0000201,0.0000000,0.0000000,0.0000040,0.0000000,0.0000000,0.0000000,0.0000201,0.0000000,0.0000000,0.0000040,0.0000000,0.0000000,0.0000000,0.0000201,0.0000000,0.0000000,0.0000040
133.6538150,1.0000501,,-0.9666451,-0.2560647,0.0023226,0.0047712,-0.0726436,-0.0683689,0.0741959,,,,1.0457660,-4.1435328,-10.7586365,0.0000000,0.0000000,0.0000000,0.0200010,0.0002017,0.0000000,0.0000000,0.0000201,0.0000000,0.0000000,0.0000000,0.0002017,0.0000000,0.0000000,0.0000201,0.0000000,0.0000000,0.0000000,0.0002017,0.0000000,0.0000000,0.0000201,0.0000201,0.0000000,0.0000000,0.0000040,0.0000000,0.0000000,0.0000000,0.0000201,0.0000000,0.0000000,0.0000040,0.0000000,0.0000000,0.0000000,0.0000201,0.0000000,0.0000000,0.0000040
133.6738370,1.0006500,,-0.9666533,-0.2560365,0.0021971,0.0046662,0.0187166,0.0654860,0.0675926,,,,1.0457757,-4.1435423,-10.7586498,0.0009652,-0.0009426,-0.0013667,0.0200130,0.0002025,0.0000000,0.0000000,0.0000202,0.0000000,0.0000000,0.0000000,0.0002025,0.0000000,0.0000000,0.0000202,0.0000000,0.0000000,0.0000000,0.0002025,0.0000000,0.0000000,0.0000202,0.0000202,0.0000000,0.0000000,0.0000040,0.0000000,0.0000000,0.0000000,0.0000202,0.0000000,0.0000000,0.0000040,0.0000000,0.0000000,0.0000000,0.0000202,0.0000000,0.0000000,0.0000040
133.6948250,1.0494001,,-0.9666866,-0.2559188,0.0018737,0.0043378,0.0391359,0.1864371,0.1040936,,,,1.0458236,-4.1435933,-10.7587023,0.0036022,-0.0039202,-0.0035890,0.0209880,0.0002034,0.0000000,0.0000000,0.0000203,0.0000000,0.0000000,0.0000000,0.0002034,0.0000000,0.0000000,0.0000203,0.0000000,0.0000000,0.0000000,0.0002034,0.0000000,0.0000000,0.0000203,0.0000203,0.0000000,0.0000000,0.0000040,0.0000000,0.0000000,0.0000000,0.0000203,0.0000000,0.0000000,0.0000040,0.0000000,0.0000000,0.0000000,0.0000203,0.0000000,0.0000000,0.0000040
133.7108350,,1.0200700,-0.9666866,-0.2559188,0.0018737,0.0043378,,,,-0.4400207,-0.2596772,0.0006422,1.0370462,-4.1487641,-10.7586861,0.0027257,-0.0044365,-0.0035874,0.1020070,0.0001993,0.0000000,0.0000000,0.0000199,0.0000000,0.0000000,0.0000000,0.0001993,0.0000000,0.0000000,0.0000199,0.0000000,0.0000000,0.0000000,0.0001993,0.0000000,0.0000000,0.0000199,0.0000199,0.0000000,0.0000000,0.0000040,0.0000000,0.0000000,0.0000000,0.0000199,0.0000000,0.0000000,0.0000040,0.0000000,0.0000000,0.0000000,0.0000199,0.0000000,0.0000000,0.0000040
133.7247210,1.1005000,,-0.9667242,-0.2557837,0.0015656,0.0040471,0.1382355,-0.0180561,0.0495901,,,,1.0371331,-4.1488414,-10.7587767,0.0051680,-0.0025788,-0.0046783,0.0220100,0.0002002,0.0000000,0.0000000,0.0000200,0.0000000,0.0000000,0.0000000,0.0002002,0.0000000,0.0000000,0.0000200,0.0000000,0.0000000,0.0000000,0.0002002,0.0000000,0.0000000,0.0000200,0.0000200,0.0000000,0.0000000,0.0000040,0.0000000,0.0000000,0.0000000,0.0000200,0.0000000,0.0000000,0.0000040,0.0000000,0.0000000,0.0000000,0.0000200,0.0000000,0.0000000,0.0000040
133.7378670,1.0494500,,-0.9667224,-0.2557952,0.0014667,0.0037681,0.0578339,0.0049490,0.0313792,,,,1.0371331,-4.1488414,-10.7587767,0.0000000,0.0000000,0.0000000,0.0209890,0.0002011,0.0000000,0.0000000,0.0000201,0.0000000,0.0000000,0.0000000,0.0002011,0.0000000,0.0000000,0.0000201,0.0000000,0.0000000,0.0000000,0.0002011,0.0000000,0.0000000,0.0000201,0.0000201,0.0000000,0.0000000,0.0000040,0.0000000,0.0000000,0.0000000,0.0000201,0.0000000,0.0000000,0.0000040,0.0000000,0.0000000,0.0000000,0.0000201,0.0000000,0.0000000,0.0000040
133.7577620,1.0006500,,-0.9667280,-0.2557789,0.0013703,0.0034674,0.0330063,-0.1484349,0.0147054,,,,1.0371242,-4.1488123,-10.7587795,-0.0008962,0.0029103,-0.0002729,0.0200130,0.0002019,0.0000000,0.0000000,0.0000202,0.0000000,0.0000000,0.0000000,0.0002019,0.0000000,0.0000000,0.0000202,0.0000000,0.0000000,0.0000000,0.0002019,0.0000000,0.0000000,0.0000202,0.0000202,0.0000000,0.0000000,0.0000040,0.0000000,0.0000000,0.0000000,0.0000202,0.0000000,0.0000000,0.0000040,0.0000000,0.0000000,0.0000000,0.0000202,0.0000000,0.0000000,0.0000040
133.7786280,1.0495000,,-0.9667423,-0.2557238,0.0013868,0.0035421,-0.0094292,-0.1711871,0.0622767,,,,1.0370848,-4.1487193,-10.7587986,-0.0028507,0.0059436,-0.0015527,0.0209900,0.0002027,0.0000000,0.0000000,0.0000202,0.0000000,0.0000000,0.0000000,0.0002027,0.0000000,0.0000000,0.0000202,0.0000000,0.0000000,0.0000000,0.0002027,0.0000000,0.0000000,0.0000202,0.0000202,0.0000000,0.0000000,0.0000040,0.0000000,0.0000000,0.0000000,0.0000202,0.0000000,0.0000000,0.0000040,0.0000000,0.0000000,0.0000000,0.0000202,0.0000000,0.0000000,0.0000040
133.8014520,,1.0099399,-0.9667323,-0.2557552,0.0012164,0.0040344,,,,-0.2860176,-0.1628836,0.0002850,1.0314014,-4.1519566,-10.7587910,-0.0034183,0.0056204,-0.0015519,0.1009940,0.0001987,0.0000000,0.0000000,0.0000198,0.0000000,0.0000000,0.0000000,0.0001987,0.0000000,0.0000000,0.0000198,0.0000000,0.0000000,0.0000000,0.0001987,0.0000000,0.0000000,0.0000198,0.0000198,0.0000000,0.0000000,0.0000040,0.0000000,0.0000000,0.0000000,0.0000198,0.0000000,0.0000000,0.0000040,0.0000000,0.0000000,0.0000000,0.0000198,0.0000000,0.0000000,0.0000040
133.8146890,1.1001501,,-0.9667323,-0.2557552,0.0012164,0.0040344,-0.0417248,-0.0553125,0.2064161,,,,1.0313106,-4.1518259,-10.7588749,-0.0048381,0.0062568,-0.0060830,0.0220030,0.0001996,0.0000000,0.0000000,0.0000199,0.0000000,0.0000000,0.0000000,0.0001996,0.0000000,0.0000000,0.0000199,0.0000000,0.0000000,0.0000000,0.0001996,0.0000000,0.0000000,0.0000199,0.0000199,0.0000000,0.0000000,0.0000040,0.0000000,0.0000000,0.0000000,0.0000199,0.0000000,0.0000000,0.0000040,0.0000000,0.0000000,0.0000000,0.0000199,0.0000000,0.0000000,0.0000040
133.8277490,1.3496001,,-0.9667356,-0.2557419,0.0011466,0.0041085,-0.0169790,-0.0531155,0.1854682,,,,1.0311648,-4.1516428,-10.7591066,-0.0059670,0.0073131,-0.0110767,0.0269920,0.0002006,0.0000000,0.0000000,0.0000200,0.0000000,0.0000000,0.0000000,0.0002006,0.0000000,0.0000000,0.0000200,0.0000000,0.0000000,0.0000000,0.0002006,0.0000000,0.0000000,0.0000200,0.0000200,0.0000000,0.0000000,0.0000040,0.0000000,0.0000000,0.0000000,0.0000200,0.0000000,0.0000000,0.0000040,0.0000000,0.0000000,0.0000000,0.0000200,0.0000000,0.0000000,0.0000040
133.8491590,1.0002000,,-0.9667469,-0.2556956,0.0012733,0.0042985,-0.0798167,0.0230638,0.1127384,,,,1.0311648,-4.1516428,-10.7591066,0.0000000,0.0000000,0.0000000,0.0200040,0.0002014,0.0000000,0.0000000,0.0000201,0.0000000,0.0000000,0.0000000,0.0002014,0.0000000,0.0000000,0.0000201,0.0000000,0.0000000,0.0000000,0.0002014,0.0000000,0.0000000,0.0000201,0.0000201,0.0000000,0.0000000,0.0000040,0.0000000,0.0000000,0.0000000,0.0000201,0.0000000,0.0000000,0.0000040,0.0000000,0.0000000,0.0000000,0.0000201,0.0000000,0.0000000,0.0000040
133.8676320,1.0002999,,-0.9667362,-0.2557290,0.0014343,0.0046358,-0.0664892,-0.0311011,-0.0886732,,,,1.0311648,-4.1516428,-10.7591066,0.0000000,0.0000000,0.0000000,0.0200060,0.0002022,0.0000000,0.0000000,0.0000202,0.0000000,0.0000000,0.0000000,0.0002022,0.0000000,0.0000000,0.0000202,0.0000000,0.0000000,0.0000000,0.0002022,0.0000000,0.0000000,0.0000202,0.0000202,0.0000000,0.0000000,0.0000040,0.0000000,0.0000000,0.0000000,0.0000202,0.0000000,0.0000000,0.0000040,0.0000000,0.0000000,0.0000000,0.0000202,0.0000000,0.0000000,0.0000040
133.8878860,1.0000000,,-0.9667379,-0.2557211,0.0015439,0.0046951,-0.0567813,-0.0071125,-0.0233634,,,,1.0311648,-4.1516428,-10.7591066,0.0000000,0.0000000,0.0000000,0.0200000,0.0002030,0.0000000,0.0000000,0.0000203,0.0000000,0.0000000,0.0000000,0.0002030,0.0000000,0.0000000,0.0000203,0.0000000,0.0000000,0.0000000,0.0002030,0.0000000,0.0000000,0.0000203,0.0000203,0.0000000,0.0000000,0.0000040,0.0000000,0.0000000,0.0000000,0.0000203,0.0000000,0.0000000,0.0000040,0.0000000,0.0000000,0.0000000,0.0000203,0.0000000,0.0000000,0.0000040
133.9037140,,1.0000000,-0.9667379,-0.2557211,0.0015439,0.0046951,,,,-0.2220838,-0.1263349,0.0001491,1.0267500,-4.1541634,-10.7590971,-0.0004409,-0.0002517,0.0000009,0.1000000,0.0001990,0.0000000,0.0000000,0.0000199,0.0000000,0.0000000,0.0000000,0.0001990,0.0000000,0.0000000,0.0000199,0.0000000,0.0000000,0.0000000,0.0001990,0.0000000,0.0000000,0.0000199,0.0000199,0.0000000,0.0000000,0.0000040,0.0000000,0.0000000,0.0000000,0.0000199,0.0000000,0.0000000,0.0000040,0.0000000,0.0000000,0.0000000,0.0000199,0.0000000,0.0000000,0.0000040
133.9176000,0.9997500,,-0.9667313,-0.2557417,0.0017321,0.0048686,-0.0864122,0.0562582,0.0402974,,,,1.0267500,-4.1541634,-10.7590971,0.0000000,0.0000000,0.0000000,0.0199950,0.0001998,0.0000000,0.0000000,0.0000200,0.0000000,0.0000000,0.0000000,0.0001998,0.0000000,0.0000000,0.0000200,0.0000000,0.0000000,0.0000000,0.0001998,0.0000000,0.0000000,0.0000200,0.0000200,0.0000000,0.0000000,0.0000040,0.0000000,0.0000000,0.0000000,0.0000200,0.0000000,0.0000000,0.0000040,0.0000000,0.0000000,0.0000000,0.0000200,0.0000000,0.0000000,0.0000040
133.9308630,1.1497999,,-0.9667214,-0.2557751,0.0017063,0.0050769,-0.1447381,0.1945644,-0.0304189,,,,1.0267422,-4.1542273,-10.7590895,-0.0006762,-0.0055409,0.0006540,0.0229960,0.0002007,0.0000000,0.0000000,0.0000200,0.0000000,0.0000000,0.0000000,0.0002007,0.0000000,0.0000000,0.0000200,0.0000000,0.0000000,0.0000000,0.0002007,0.0000000,0.0000000,0.0000200,0.0000200,0.0000000,0.0000000,0.0000040,0.0000000,0.0000000,0.0000000,0.0000200,0.0000000,0.0000000,0.0000040,0.0000000,0.0000000,0.0000000,0.0000200,0.0000000,0.0000000,0.0000040
133.9519860,1.0502001,,-0.9667070,-0.2558193,0.0016614,0.0055699,0.0145603,0.0198209,-0.0472300,,,,1.0267422,-4.1542273,-10.7590895,0.0000000,0.0000000,0.0000000,0.0210040,0.0002016,0.0000000,0.0000000,0.0000201,0.0000000,0.0000000,0.0000000,0.0002016,0.0000000,0.0000000,0.0000201,0.0000000,0.0000000,0.0000000,0.0002016,0.0000000,0.0000000,0.0000201,0.0000201,0.0000000,0.0000000,0.0000040,0.0000000,0.0000000,0.0000000,0.0000201,0.0000000,0.0000000,0.0000040,0.0000000,0.0000000,0.0000000,0.0000201,0.0000000,0.0000000,0.0000040
133.9718320,1.0001501,,-0.9667069,-0.2558177,0.0015702,0.0056922,0.0550783,0.0049285,-0.0500127,,,,1.0267422,-4.1542273,-10.7590895,0.0000000,0.0000000,0.0000000,0.0200030,0.0002024,0.0000000,0.0000000,0.0000202,0.0000000,0.0000000,0.0000000,0.0002024,0.0000000,0.0000000,0.0000202,0.0000000,0.0000000,0.0000000,0.0002024,0.0000000,0.0000000,0.0000202,0.0000202,0.0000000,0.0000000,0.0000040,0.0000000,0.0000000,0.0000000,0.0000202,0.0000000,0.0000000,0.0000040,0.0000000,0.0000000,0.0000000,0.0000202,0.0000000,0.0000000,0.0000040
133.9918960,1.0000501,,-0.9667135,-0.2558035,0.0014380,0.0051984,0.0803346,0.1330795,-0.0247851,,,,1.0267422,-4.1542273,-10.7590895,0.0000000,0.0000000,0.0000000,0.0200010,0.0002032,0.0000000,0.0000000,0.0000203,0.0000000,0.0000000,0.0000000,0.0002032,0.0000000,0.0000000,0.0000203,0.0000000,0.0000000,0.0000000,0.0002032,0.0000000,0.0000000,0.0000203,0.0000203,0.0000000,0.0000000,0.0000040,0.0000000,0.0000000,0.0000000,0.0000203,0.0000000,0.0000000,0.0000040,0.0000000,0.0000000,0.0000000,0.0000203,0.0000000,0.0000000,0.0000040
134.0076720,,1.0200000,-0.9667135,-0.2558035,0.0014380,0.0044601,,,,-0.1464161,-0.0833210,0.0000203,1.0238268,-4.1558852,-10.7590895,-0.0002911,-0.0001656,0.0000000,0.1020000,0.0001991,0.0000000,0.0000000,0.0000199,0.0000000,0.0000000,0.0000000,0.0001991,0.0000000,0.0000000,0.0000199,0.0000000,0.0000000,0.0000000,0.0001991,0.0000000,0.0000000,0.0000199,0.0000199,0.0000000,0.0000000,0.0000040,0.0000000,0.0000000,0.0000000,0.0000199,0.0000000,0.0000000,0.0000040,0.0000000,0.0000000,0.0000000,0.0000199,0.0000000,0.0000000,0.0000040
