t,predict_cpu,update_cpu,quat_x,quat_y,quat_z,quat_w,accel_x,accel_y,accel_z,of_x,of_y,of_z,x_x,x_y,x_z,x_vx,x_vy,x_vz,dt,P_0,P_1,P_2,P_3,P_4,P_5,P_6,P_7,P_8,P_9,P_10,P_11,P_12,P_13,P_14,P_15,P_16,P_17,P_18,P_19,P_20,P_21,P_22,P_23,P_24,P_25,P_26,P_27,P_28,P_29,P_30,P_31,P_32,P_33,P_34,P_35
362.1769120,1.1998000,,-0.9990964,0.0424242,-0.0015168,0.0020710,-0.0037511,0.0016003,-0.0030281,,,,0.2173516,4.8160677,-15.9049110,0.0000000,0.0000000,0.0000000,0.0239960,0.0002007,0.0000000,0.0000000,0.0000200,0.0000000,0.0000000,0.0000000,0.0002007,0.0000000,0.0000000,0.0000200,0.0000000,0.0000000,0.0000000,0.0002007,0.0000000,0.0000000,0.0000200,0.0000200,0.0000000,0.0000000,0.0000040,0.0000000,0.0000000,0.0000000,0.0000200,0.0000000,0.0000000,0.0000040,0.0000000,0.0000000,0.0000000,0.0000200,0.0000000,0.0000000,0.0000040
362.1968390,1.0004500,,-0.9990964,0.0424242,-0.0015030,0.0020815,-0.0027834,0.0068655,-0.0029789,,,,0.2173516,4.8160677,-15.9049110,0.0000000,0.0000000,0.0000000,0.0200090,0.0002015,0.0000000,0.0000000,0.0000201,0.0000000,0.0000000,0.0000000,0.0002015,0.0000000,0.0000000,0.0000201,0.0000000,0.0000000,0.0000000,0.0002015,0.0000000,0.0000000,0.0000201,0.0000201,0.0000000,0.0000000,0.0000040,0.0000000,0.0000000,0.0000000,0.0000201,0.0000000,0.0000000,0.0000040,0.0000000,0.0000000,0.0000000,0.0000201,0.0000000,0.0000000,0.0000040
362.2170290,1.0000501,,-0.9990964,0.0424243,-0.0014676,0.0020828,-0.0068772,0.0075297,-0.0002687,,,,0.2173516,4.8160677,-15.9049110,0.0000000,0.0000000,0.0000000,0.0200010,0.0002023,0.0000000,0.0000000,0.0000202,0.0000000,0.0000000,0.0000000,0.0002023,0.0000000,0.0000000,0.0000202,0.0000000,0.0000000,0.0000000,0.0002023,0.0000000,0.0000000,0.0000202,0.0000202,0.0000000,0.0000000,0.0000040,0.0000000,0.0000000,0.0000000,0.0000202,0.0000000,0.0000000,0.0000040,0.0000000,0.0000000,0.0000000,0.0000202,0.0000000,0.0000000,0.0000040
362.2370000,0.9995500,,-0.9990964,0.0424242,-0.0014911,0.0020678,0.0031989,0.0017355,0.0023070,,,,0.2173516,4.8160677,-15.9049110,0.0000000,0.0000000,0.0000000,0.0199910,0.0002031,0.0000000,0.0000000,0.0000203,0.0000000,0.0000000,0.0000000,0.0002031,0.0000000,0.0000000,0.0000203,0.0000000,0.0000000,0.0000000,0.0002031,0.0000000,0.0000000,0.0000203,0.0000203,0.0000000,0.0000000,0.0000040,0.0000000,0.0000000,0.0000000,0.0000203,0.0000000,0.0000000,0.0000040,0.0000000,0.0000000,0.0000000,0.0000203,0.0000000,0.0000000,0.0000040
362.2527540,,1.0199900,-0.9990964,0.0424242,-0.0014911,0.0020678,,,,0.0000000,0.0000000,0.0000000,0.2173516,4.8160677,-15.9049110,0.0000000,0.0000000,0.0000000,0.1019990,0.0001991,0.0000000,0.0000000,0.0000199,0.0000000,0.0000000,0.0000000,0.0001991,0.0000000,0.0000000,0.0000199,0.0000000,0.0000000,0.0000000,0.0001991,0.0000000,0.0000000,0.0000199,0.0000199,0.0000000,0.0000000,0.0000040,0.0000000,0.0000000,0.0000000,0.0000199,0.0000000,0.0000000,0.0000040,0.0000000,0.0000000,0.0000000,0.0000199,0.0000000,0.0000000,0.0000040
362.2666540,1.0000501,,-0.9990964,0.0424242,-0.0015020,0.0020613,0.0055515,0.0027446,-0.0047059,,,,0.2173516,4.8160677,-15.9049110,0.0000000,0.0000000,0.0000000,0.0200010,0.0001998,0.0000000,0.0000000,0.0000200,0.0000000,0.0000000,0.0000000,0.0001998,0.0000000,0.0000000,0.0000200,0.0000000,0.0000000,0.0000000,0.0001998,0.0000000,0.0000000,0.0000200,0.0000200,0.0000000,0.0000000,0.0000040,0.0000000,0.0000000,0.0000000,0.0000200,0.0000000,0.0000000,0.0000040,0.0000000,0.0000000,0.0000000,0.0000200,0.0000000,0.0000000,0.0000040
362.2797370,1.1498500,,-0.9990965,0.0424243,-0.0014901,0.0020552,-0.0010542,0.0044622,-0.0008881,,,,0.2173516,4.8160677,-15.9049110,0.0000000,0.0000000,0.0000000,0.0229970,0.0002008,0.0000000,0.0000000,0.0000201,0.0000000,0.0000000,0.0000000,0.0002008,0.0000000,0.0000000,0.0000201,0.0000000,0.0000000,0.0000000,0.0002008,0.0000000,0.0000000,0.0000201,0.0000201,0.0000000,0.0000000,0.0000040,0.0000000,0.0000000,0.0000000,0.0000201,0.0000000,0.0000000,0.0000040,0.0000000,0.0000000,0.0000000,0.0000201,0.0000000,0.0000000,0.0000040
362.3007580,1.0502001,,-0.9990965,0.0424243,-0.0014948,0.0020599,0.0049050,-0.0012555,-0.0009323,,,,0.2173516,4.8160677,-15.9049110,0.0000000,0.0000000,0.0000000,0.0210040,0.0002016,0.0000000,0.0000000,0.0000201,0.0000000,0.0000000,0.0000000,0.0002016,0.0000000,0.0000000,0.0000201,0.0000000,0.0000000,0.0000000,0.0002016,0.0000000,0.0000000,0.0000201,0.0000201,0.0000000,0.0000000,0.0000040,0.0000000,0.0000000,0.0000000,0.0000201,0.0000000,0.0000000,0.0000040,0.0000000,0.0000000,0.0000000,0.0000201,0.0000000,0.0000000,0.0000040
362.3220210,1.0502501,,-0.9990964,0.0424243,-0.0014932,0.0020881,0.0027653,-0.0001547,0.0009987,,,,0.2173516,4.8160677,-15.9049110,0.0000000,0.0000000,0.0000000,0.0210050,0.0002025,0.0000000,0.0000000,0.0000202,0.0000000,0.0000000,0.0000000,0.0002025,0.0000000,0.0000000,0.0000202,0.0000000,0.0000000,0.0000000,0.0002025,0.0000000,0.0000000,0.0000202,0.0000202,0.0000000,0.0000000,0.0000040,0.0000000,0.0000000,0.0000000,0.0000202,0.0000000,0.0000000,0.0000040,0.0000000,0.0000000,0.0000000,0.0000202,0.0000000,0.0000000,0.0000040
362.3419520,0.9996500,,-0.9990964,0.0424243,-0.0014923,0.0020846,0.0034044,-0.0011073,0.0063587,,,,0.2173516,4.8160677,-15.9049110,0.0000000,0.0000000,0.0000000,0.0199930,0.0002033,0.0000000,0.0000000,0.0000203,0.0000000,0.0000000,0.0000000,0.0002033,0.0000000,0.0000000,0.0000203,0.0000000,0.0000000,0.0000000,0.0002033,0.0000000,0.0000000,0.0000203,0.0000203,0.0000000,0.0000000,0.0000040,0.0000000,0.0000000,0.0000000,0.0000203,0.0000000,0.0000000,0.0000040,0.0000000,0.0000000,0.0000000,0.0000203,0.0000000,0.0000000,0.0000040
362.3577240,,1.0000700,-0.9990964,0.0424243,-0.0014923,0.0020846,,,,0.0000000,0.0000000,0.0000000,0.2173516,4.8160677,-15.9049110,0.0000000,0.0000000,0.0000000,0.1000070,0.0001992,0.0000000,0.0000000,0.0000199,0.0000000,0.0000000,0.0000000,0.0001992,0.0000000,0.0000000,0.0000199,0.0000000,0.0000000,0.0000000,0.0001992,0.0000000,0.0000000,0.0000199,0.0000199,0.0000000,0.0000000,0.0000040,0.0000000,0.0000000,0.0000000,0.0000199,0.0000000,0.0000000,0.0000040,0.0000000,0.0000000,0.0000000,0.0000199,0.0000000,0.0000000,0.0000040
362.3716770,1.0002000,,-0.9990963,0.0424242,-0.0015318,0.0020792,0.0038842,-0.0010954,-0.0009710,,,,0.2173516,4.8160677,-15.9049110,0.0000000,0.0000000,0.0000000,0.0200040,0.0002000,0.0000000,0.0000000,0.0000200,0.0000000,0.0000000,0.0000000,0.0002000,0.0000000,0.0000000,0.0000200,0.0000000,0.0000000,0.0000000,0.0002000,0.0000000,0.0000000,0.0000200,0.0000200,0.0000000,0.0000000,0.0000040,0.0000000,0.0000000,0.0000000,0.0000200,0.0000000,0.0000000,0.0000040,0.0000000,0.0000000,0.0000000,0.0000200,0.0000000,0.0000000,0.0000040
362.3847200,1.1497000,,-0.9990963,0.0424242,-0.0015647,0.0020768,0.0045895,0.0020845,0.0004910,,,,0.2173516,4.8160677,-15.9049110,0.0000000,0.0000000,0.0000000,0.0229940,0.0002009,0.0000000,0.0000000,0.0000201,0.0000000,0.0000000,0.0000000,0.0002009,0.0000000,0.0000000,0.0000201,0.0000000,0.0000000,0.0000000,0.0002009,0.0000000,0.0000000,0.0000201,0.0000201,0.0000000,0.0000000,0.0000040,0.0000000,0.0000000,0.0000000,0.0000201,0.0000000,0.0000000,0.0000040,0.0000000,0.0000000,0.0000000,0.0000201,0.0000000,0.0000000,0.0000040
362.4057090,1.0501500,,-0.9990963,0.0424241,-0.0015877,0.0020657,0.0078566,0.0043915,0.0002455,,,,0.2173516,4.8160677,-15.9049110,0.0000000,0.0000000,0.0000000,0.0210030,0.0002018,0.0000000,0.0000000,0.0000202,0.0000000,0.0000000,0.0000000,0.0002018,0.0000000,0.0000000,0.0000202,0.0000000,0.0000000,0.0000000,0.0002018,0.0000000,0.0000000,0.0000202,0.0000202,0.0000000,0.0000000,0.0000040,0.0000000,0.0000000,0.0000000,0.0000202,0.0000000,0.0000000,0.0000040,0.0000000,0.0000000,0.0000000,0.0000202,0.0000000,0.0000000,0.0000040
362.4270110,1.0503500,,-0.9990963,0.0424241,-0.0016092,0.0020443,0.0099555,0.0018448,-0.0045159,,,,0.2173516,4.8160677,-15.9049110,0.0000000,0.0000000,0.0000000,0.0210070,0.0002026,0.0000000,0.0000000,0.0000202,0.0000000,0.0000000,0.0000000,0.0002026,0.0000000,0.0000000,0.0000202,0.0000000,0.0000000,0.0000000,0.0002026,0.0000000,0.0000000,0.0000202,0.0000202,0.0000000,0.0000000,0.0000040,0.0000000,0.0000000,0.0000000,0.0000202,0.0000000,0.0000000,0.0000040,0.0000000,0.0000000,0.0000000,0.0000202,0.0000000,0.0000000,0.0000040
362.4472770,,1.0098799,-0.9990963,0.0424240,-0.0016360,0.0020260,,,,0.0000000,0.0000000,0.0000000,0.2173516,4.8160677,-15.9049110,0.0000000,0.0000000,0.0000000,0.1009880,0.0001986,0.0000000,0.0000000,0.0000198,0.0000000,0.0000000,0.0000000,0.0001986,0.0000000,0.0000000,0.0000198,0.0000000,0.0000000,0.0000000,0.0001986,0.0000000,0.0000000,0.0000198,0.0000198,0.0000000,0.0000000,0.0000040,0.0000000,0.0000000,0.0000000,0.0000198,0.0000000,0.0000000,0.0000040,0.0000000,0.0000000,0.0000000,0.0000198,0.0000000,0.0000000,0.0000040
362.4607980,1.0006001,,-0.9990963,0.0424240,-0.0016360,0.0020260,0.0095096,0.0066673,-0.0010373,,,,0.2173516,4.8160677,-15.9049110,0.0000000,0.0000000,0.0000000,0.0200120,0.0001994,0.0000000,0.0000000,0.0000199,0.0000000,0.0000000,0.0000000,0.0001994,0.0000000,0.0000000,0.0000199,0.0000000,0.0000000,0.0000000,0.0001994,0.0000000,0.0000000,0.0000199,0.0000199,0.0000000,0.0000000,0.0000040,0.0000000,0.0000000,0.0000000,0.0000199,0.0000000,0.0000000,0.0000040,0.0000000,0.0000000,0.0000000,0.0000199,0.0000000,0.0000000,0.0000040
362.4737710,1.3489000,,-0.9990964,0.0424240,-0.0016203,0.0019994,0.0047014,-0.0017017,0.0002138,,,,0.2173516,4.8160677,-15.9049110,0.0000000,0.0000000,0.0000000,0.0269780,0.0002005,0.0000000,0.0000000,0.0000200,0.0000000,0.0000000,0.0000000,0.0002005,0.0000000,0.0000000,0.0000200,0.0000000,0.0000000,0.0000000,0.0002005,0.0000000,0.0000000,0.0000200,0.0000200,0.0000000,0.0000000,0.0000040,0.0000000,0.0000000,0.0000000,0.0000200,0.0000000,0.0000000,0.0000040,0.0000000,0.0000000,0.0000000,0.0000200,0.0000000,0.0000000,0.0000040
362.4939480,1.0000000,,-0.9990964,0.0424240,-0.0016163,0.0020020,-0.0006324,0.0056189,-0.0025786,,,,0.2173516,4.8160677,-15.9049110,0.0000000,0.0000000,0.0000000,0.0200000,0.0002013,0.0000000,0.0000000,0.0000201,0.0000000,0.0000000,0.0000000,0.0002013,0.0000000,0.0000000,0.0000201,0.0000000,0.0000000,0.0000000,0.0002013,0.0000000,0.0000000,0.0000201,0.0000201,0.0000000,0.0000000,0.0000040,0.0000000,0.0000000,0.0000000,0.0000201,0.0000000,0.0000000,0.0000040,0.0000000,0.0000000,0.0000000,0.0000201,0.0000000,0.0000000,0.0000040
362.5137390,1.0005001,,-0.9990964,0.0424240,-0.0016157,0.0019960,-0.0033069,-0.0002576,0.0001755,,,,0.2173516,4.8160677,-15.9049110,0.0000000,0.0000000,0.0000000,0.0200100,0.0002021,0.0000000,0.0000000,0.0000202,0.0000000,0.0000000,0.0000000,0.0002021,0.0000000,0.0000000,0.0000202,0.0000000,0.0000000,0.0000000,0.0002021,0.0000000,0.0000000,0.0000202,0.0000202,0.0000000,0.0000000,0.0000040,0.0000000,0.0000000,0.0000000,0.0000202,0.0000000,0.0000000,0.0000040,0.0000000,0.0000000,0.0000000,0.0000202,0.0000000,0.0000000,0.0000040
362.5347850,1.0495499,,-0.9990964,0.0424241,-0.0015790,0.0020386,-0.0067652,-0.0040808,0.0003319,,,,0.2173516,4.8160677,-15.9049110,0.0000000,0.0000000,0.0000000,0.0209910,0.0002029,0.0000000,0.0000000,0.0000203,0.0000000,0.0000000,0.0000000,0.0002029,0.0000000,0.0000000,0.0000203,0.0000000,0.0000000,0.0000000,0.0002029,0.0000000,0.0000000,0.0000203,0.0000203,0.0000000,0.0000000,0.0000040,0.0000000,0.0000000,0.0000000,0.0000203,0.0000000,0.0000000,0.0000040,0.0000000,0.0000000,0.0000000,0.0000203,0.0000000,0.0000000,0.0000040
362.5511040,,1.0200200,-0.9990964,0.0424241,-0.0015790,0.0020386,,,,0.0000000,0.0000000,0.0000000,0.2173516,4.8160677,-15.9049110,0.0000000,0.0000000,0.0000000,0.1020020,0.0001989,0.0000000,0.0000000,0.0000199,0.0000000,0.0000000,0.0000000,0.0001989,0.0000000,0.0000000,0.0000199,0.0000000,0.0000000,0.0000000,0.0001989,0.0000000,0.0000000,0.0000199,0.0000199,0.0000000,0.0000000,0.0000040,0.0000000,0.0000000,0.0000000,0.0000199,0.0000000,0.0000000,0.0000040,0.0000000,0.0000000,0.0000000,0.0000199,0.0000000,0.0000000,0.0000040
362.5658740,1.1000500,,-0.9990964,0.0424243,-0.0015425,0.0020623,-0.0030850,0.0013318,-0.0032520,,,,0.2173516,4.8160677,-15.9049110,0.0000000,0.0000000,0.0000000,0.0220010,0.0001998,0.0000000,0.0000000,0.0000200,0.0000000,0.0000000,0.0000000,0.0001998,0.0000000,0.0000000,0.0000200,0.0000000,0.0000000,0.0000000,0.0001998,0.0000000,0.0000000,0.0000200,0.0000200,0.0000000,0.0000000,0.0000040,0.0000000,0.0000000,0.0000000,0.0000200,0.0000000,0.0000000,0.0000040,0.0000000,0.0000000,0.0000000,0.0000200,0.0000000,0.0000000,0.0000040
362.5787560,1.0999000,,-0.9990964,0.0424243,-0.0015457,0.0020497,0.0038362,0.0005743,0.0003271,,,,0.2173516,4.8160677,-15.9049110,0.0000000,0.0000000,0.0000000,0.0219980,0.0002006,0.0000000,0.0000000,0.0000200,0.0000000,0.0000000,0.0000000,0.0002006,0.0000000,0.0000000,0.0000200,0.0000000,0.0000000,0.0000000,0.0002006,0.0000000,0.0000000,0.0000200,0.0000200,0.0000000,0.0000000,0.0000040,0.0000000,0.0000000,0.0000000,0.0000200,0.0000000,0.0000000,0.0000040,0.0000000,0.0000000,0.0000000,0.0000200,0.0000000,0.0000000,0.0000040
362.5988720,1.0000000,,-0.9990963,0.0424242,-0.0015738,0.0020593,0.0055344,0.0019351,-0.0008130,,,,0.2173516,4.8160677,-15.9049110,0.0000000,0.0000000,0.0000000,0.0200000,0.0002014,0.0000000,0.0000000,0.0000201,0.0000000,0.0000000,0.0000000,0.0002014,0.0000000,0.0000000,0.0000201,0.0000000,0.0000000,0.0000000,0.0002014,0.0000000,0.0000000,0.0000201,0.0000201,0.0000000,0.0000000,0.0000040,0.0000000,0.0000000,0.0000000,0.0000201,0.0000000,0.0000000,0.0000040,0.0000000,0.0000000,0.0000000,0.0000201,0.0000000,0.0000000,0.0000040
362.6186560,1.0006500,,-0.9990962,0.0424242,-0.0016010,0.0020907,0.0051400,0.0021806,0.0049646,,,,0.2173516,4.8160677,-15.9049110,0.0000000,0.0000000,0.0000000,0.0200130,0.0002022,0.0000000,0.0000000,0.0000202,0.0000000,0.0000000,0.0000000,0.0002022,0.0000000,0.0000000,0.0000202,0.0000000,0.0000000,0.0000000,0.0002022,0.0000000,0.0000000,0.0000202,0.0000202,0.0000000,0.0000000,0.0000040,0.0000000,0.0000000,0.0000000,0.0000202,0.0000000,0.0000000,0.0000040,0.0000000,0.0000000,0.0000000,0.0000202,0.0000000,0.0000000,0.0000040
362.6396880,1.0494500,,-0.9990962,0.0424242,-0.0016295,0.0020885,0.0019825,0.0020287,0.0015057,,,,0.2173516,4.8160677,-15.9049110,0.0000000,0.0000000,0.0000000,0.0209890,0.0002031,0.0000000,0.0000000,0.0000203,0.0000000,0.0000000,0.0000000,0.0002031,0.0000000,0.0000000,0.0000203,0.0000000,0.0000000,0.0000000,0.0002031,0.0000000,0.0000000,0.0000203,0.0000203,0.0000000,0.0000000,0.0000040,0.0000000,0.0000000,0.0000000,0.0000203,0.0000000,0.0000000,0.0000040,0.0000000,0.0000000,0.0000000,0.0000203,0.0000000,0.0000000,0.0000040
362.6560130,,1.0000199,-0.9990962,0.0424242,-0.0016295,0.0020885,,,,0.0000000,0.0000000,0.0000000,0.2173516,4.8160677,-15.9049110,0.0000000,0.0000000,0.0000000,0.1000020,0.0001990,0.0000000,0.0000000,0.0000199,0.0000000,0.0000000,0.0000000,0.0001990,0.0000000,0.0000000,0.0000199,0.0000000,0.0000000,0.0000000,0.0001990,0.0000000,0.0000000,0.0000199,0.0000199,0.0000000,0.0000000,0.0000040,0.0000000,0.0000000,0.0000000,0.0000199,0.0000000,0.0000000,0.0000040,0.0000000,0.0000000,0.0000000,0.0000199,0.0000000,0.0000000,0.0000040
362.6696510,1.1000000,,-0.9990962,0.0424242,-0.0016177,0.0020857,-0.0075994,0.0024334,-0.0048624,,,,0.2173516,4.8160677,-15.9049110,0.0000000,0.0000000,0.0000000,0.0220000,0.0001999,0.0000000,0.0000000,0.0000200,0.0000000,0.0000000,0.0000000,0.0001999,0.0000000,0.0000000,0.0000200,0.0000000,0.0000000,0.0000000,0.0001999,0.0000000,0.0000000,0.0000200,0.0000200,0.0000000,0.0000000,0.0000040,0.0000000,0.0000000,0.0000000,0.0000200,0.0000000,0.0000000,0.0000040,0.0000000,0.0000000,0.0000000,0.0000200,0.0000000,0.0000000,0.0000040
362.6828540,1.0499500,,-0.9990963,0.0424242,-0.0015997,0.0020723,-0.0087054,0.0060309,-0.0075581,,,,0.2173516,4.8160677,-15.9049110,0.0000000,0.0000000,0.0000000,0.0209990,0.0002008,0.0000000,0.0000000,0.0000201,0.0000000,0.0000000,0.0000000,0.0002008,0.0000000,0.0000000,0.0000201,0.0000000,0.0000000,0.0000000,0.0002008,0.0000000,0.0000000,0.0000201,0.0000201,0.0000000,0.0000000,0.0000040,0.0000000,0.0000000,0.0000000,0.0000201,0.0000000,0.0000000,0.0000040,0.0000000,0.0000000,0.0000000,0.0000201,0.0000000,0.0000000,0.0000040
362.7043440,0.9999500,,-0.9990963,0.0424242,-0.0016025,0.0020690,-0.0070840,0.0039310,-0.0045115,,,,0.2173516,4.8160677,-15.9049110,0.0000000,0.0000000,0.0000000,0.0199990,0.0002016,0.0000000,0.0000000,0.0000201,0.0000000,0.0000000,0.0000000,0.0002016,0.0000000,0.0000000,0.0000201,0.0000000,0.0000000,0.0000000,0.0002016,0.0000000,0.0000000,0.0000201,0.0000201,0.0000000,0.0000000,0.0000040,0.0000000,0.0000000,0.0000000,0.0000201,0.0000000,0.0000000,0.0000040,0.0000000,0.0000000,0.0000000,0.0000201,0.0000000,0.0000000,0.0000040
362.7229280,1.0004500,,-0.9990962,0.0424242,-0.0016231,0.0020754,-0.0014287,0.0002107,0.0038478,,,,0.2173516,4.8160677,-15.9049110,0.0000000,0.0000000,0.0000000,0.0200090,0.0002024,0.0000000,0.0000000,0.0000202,0.0000000,0.0000000,0.0000000,0.0002024,0.0000000,0.0000000,0.0000202,0.0000000,0.0000000,0.0000000,0.0002024,0.0000000,0.0000000,0.0000202,0.0000202,0.0000000,0.0000000,0.0000040,0.0000000,0.0000000,0.0000000,0.0000202,0.0000000,0.0000000,0.0000040,0.0000000,0.0000000,0.0000000,0.0000202,0.0000000,0.0000000,0.0000040
362.7429270,1.0000000,,-0.9990962,0.0424243,-0.0016083,0.0020863,-0.0034304,-0.0077377,0.0009473,,,,0.2173516,4.8160677,-15.9049110,0.0000000,0.0000000,0.0000000,0.0200000,0.0002032,0.0000000,0.0000000,0.0000203,0.0000000,0.0000000,0.0000000,0.0002032,0.0000000,0.0000000,0.0000203,0.0000000,0.0000000,0.0000000,0.0002032,0.0000000,0.0000000,0.0000203,0.0000203,0.0000000,0.0000000,0.0000040,0.0000000,0.0000000,0.0000000,0.0000203,0.0000000,0.0000000,0.0000040,0.0000000,0.0000000,0.0000000,0.0000203,0.0000000,0.0000000,0.0000040
362.7578010,,1.0200700,-0.9990962,0.0424243,-0.0016083,0.0020863,,,,0.0000000,0.0000000,0.0000000,0.2173516,4.8160677,-15.9049110,0.0000000,0.0000000,0.0000000,0.1020070,0.0001991,0.0000000,0.0000000,0.0000199,0.0000000,0.0000000,0.0000000,0.0001991,0.0000000,0.0000000,0.0000199,0.0000000,0.0000000,0.0000000,0.0001991,0.0000000,0.0000000,0.0000199,0.0000199,0.0000000,0.0000000,0.0000040,0.0000000,0.0000000,0.0000000,0.0000199,0.0000000,0.0000000,0.0000040,0.0000000,0.0000000,0.0000000,0.0000199,0.0000000,0.0000000,0.0000040
362.7716010,1.0001501,,-0.9990962,0.0424243,-0.0016098,0.0020929,0.0048232,-0.0038993,-0.0027002,,,,0.2173516,4.8160677,-15.9049110,0.0000000,0.0000000,0.0000000,0.0200030,0.0001999,0.0000000,0.0000000,0.0000200,0.0000000,0.0000000,0.0000000,0.0001999,0.0000000,0.0000000,0.0000200,0.0000000,0.0000000,0.0000000,0.0001999,0.0000000,0.0000000,0.0000200,0.0000200,0.0000000,0.0000000,0.0000040,0.0000000,0.0000000,0.0000000,0.0000200,0.0000000,0.0000000,0.0000040,0.0000000,0.0000000,0.0000000,0.0000200,0.0000000,0.0000000,0.0000040
362.7847860,1.0994000,,-0.9990962,0.0424242,-0.0016343,0.0020859,0.0032890,0.0002018,-0.0072095,,,,0.2173516,4.8160677,-15.9049110,0.0000000,0.0000000,0.0000000,0.0219880,0.0002008,0.0000000,0.0000000,0.0000201,0.0000000,0.0000000,0.0000000,0.0002008,0.0000000,0.0000000,0.0000201,0.0000000,0.0000000,0.0000000,0.0002008,0.0000000,0.0000000,0.0000201,0.0000201,0.0000000,0.0000000,0.0000040,0.0000000,0.0000000,0.0000000,0.0000201,0.0000000,0.0000000,0.0000040,0.0000000,0.0000000,0.0000000,0.0000201,0.0000000,0.0000000,0.0000040
362.8062040,1.0000501,,-0.9990962,0.0424242,-0.0016479,0.0020886,0.0044750,0.0030001,-0.0021399,,,,0.2173516,4.8160677,-15.9049110,0.0000000,0.0000000,0.0000000,0.0200010,0.0002016,0.0000000,0.0000000,0.0000201,0.0000000,0.0000000,0.0000000,0.0002016,0.0000000,0.0000000,0.0000201,0.0000000,0.0000000,0.0000000,0.0002016,0.0000000,0.0000000,0.0000201,0.0000201,0.0000000,0.0000000,0.0000040,0.0000000,0.0000000,0.0000000,0.0000201,0.0000000,0.0000000,0.0000040,0.0000000,0.0000000,0.0000000,0.0000201,0.0000000,0.0000000,0.0000040
362.8247560,1.0000501,,-0.9990962,0.0424242,-0.0016416,0.0021010,0.0026495,0.0024613,0.0030804,,,,0.2173516,4.8160677,-15.9049110,0.0000000,0.0000000,0.0000000,0.0200010,0.0002024,0.0000000,0.0000000,0.0000202,0.0000000,0.0000000,0.0000000,0.0002024,0.0000000,0.0000000,0.0000202,0.0000000,0.0000000,0.0000000,0.0002024,0.0000000,0.0000000,0.0000202,0.0000202,0.0000000,0.0000000,0.0000040,0.0000000,0.0000000,0.0000000,0.0000202,0.0000000,0.0000000,0.0000040,0.0000000,0.0000000,0.0000000,0.0000202,0.0000000,0.0000000,0.0000040
362.8448480,0.9999500,,-0.9990961,0.0424243,-0.0016419,0.0021169,0.0066119,0.0039238,0.0020285,,,,0.2173516,4.8160677,-15.9049110,0.0000000,0.0000000,0.0000000,0.0199990,0.0002032,0.0000000,0.0000000,0.0000203,0.0000000,0.0000000,0.0000000,0.0002032,0.0000000,0.0000000,0.0000203,0.0000000,0.0000000,0.0000000,0.0002032,0.0000000,0.0000000,0.0000203,0.0000203,0.0000000,0.0000000,0.0000040,0.0000000,0.0000000,0.0000000,0.0000203,0.0000000,0.0000000,0.0000040,0.0000000,0.0000000,0.0000000,0.0000203,0.0000000,0.0000000,0.0000040
362.8609420,,1.0199200,-0.9990961,0.0424243,-0.0016419,0.0021169,,,,0.0000000,0.0000000,0.0000000,0.2173516,4.8160677,-15.9049110,0.0000000,0.0000000,0.0000000,0.1019920,0.0001992,0.0000000,0.0000000,0.0000199,0.0000000,0.0000000,0.0000000,0.0001992,0.0000000,0.0000000,0.0000199,0.0000000,0.0000000,0.0000000,0.0001992,0.0000000,0.0000000,0.0000199,0.0000199,0.0000000,0.0000000,0.0000040,0.0000000,0.0000000,0.0000000,0.0000199,0.0000000,0.0000000,0.0000040,0.0000000,0.0000000,0.0000000,0.0000199,0.0000000,0.0000000,0.0000040
362.8747120,1.0000000,,-0.9990962,0.0424243,-0.0016346,0.0021031,0.0037256,0.0021679,0.0022350,,,,0.2173516,4.8160677,-15.9049110,0.0000000,0.0000000,0.0000000,0.0200000,0.0002000,0.0000000,0.0000000,0.0000200,0.0000000,0.0000000,0.0000000,0.0002000,0.0000000,0.0000000,0.0000200,0.0000000,0.0000000,0.0000000,0.0002000,0.0000000,0.0000000,0.0000200,0.0000200,0.0000000,0.0000000,0.0000040,0.0000000,0.0000000,0.0000000,0.0000200,0.0000000,0.0000000,0.0000040,0.0000000,0.0000000,0.0000000,0.0000200,0.0000000,0.0000000,0.0000040
362.8876850,1.1499500,,-0.9990960,0.0424244,-0.0016324,0.0021403,0.0069211,-0.0013040,-0.0049860,,,,0.2173516,4.8160677,-15.9049110,0.0000000,0.0000000,0.0000000,0.0229990,0.0002009,0.0000000,0.0000000,0.0000201,0.0000000,0.0000000,0.0000000,0.0002009,0.0000000,0.0000000,0.0000201,0.0000000,0.0000000,0.0000000,0.0002009,0.0000000,0.0000000,0.0000201,0.0000201,0.0000000,0.0000000,0.0000040,0.0000000,0.0000000,0.0000000,0.0000201,0.0000000,0.0000000,0.0000040,0.0000000,0.0000000,0.0000000,0.0000201,0.0000000,0.0000000,0.0000040
362.9091710,1.0500500,,-0.9990960,0.0424244,-0.0016303,0.0021355,0.0077864,0.0022853,-0.0002958,,,,0.2173516,4.8160677,-15.9049110,0.0000000,0.0000000,0.0000000,0.0210010,0.0002017,0.0000000,0.0000000,0.0000202,0.0000000,0.0000000,0.0000000,0.0002017,0.0000000,0.0000000,0.0000202,0.0000000,0.0000000,0.0000000,0.0002017,0.0000000,0.0000000,0.0000202,0.0000202,0.0000000,0.0000000,0.0000040,0.0000000,0.0000000,0.0000000,0.0000202,0.0000000,0.0000000,0.0000040,0.0000000,0.0000000,0.0000000,0.0000202,0.0000000,0.0000000,0.0000040
362.9288680,0.9999500,,-0.9990960,0.0424244,-0.0016209,0.0021328,0.0033515,-0.0030077,0.0035142,,,,0.2173516,4.8160677,-15.9049110,0.0000000,0.0000000,0.0000000,0.0199990,0.0002025,0.0000000,0.0000000,0.0000202,0.0000000,0.0000000,0.0000000,0.0002025,0.0000000,0.0000000,0.0000202,0.0000000,0.0000000,0.0000000,0.0002025,0.0000000,0.0000000,0.0000202,0.0000202,0.0000000,0.0000000,0.0000040,0.0000000,0.0000000,0.0000000,0.0000202,0.0000000,0.0000000,0.0000040,0.0000000,0.0000000,0.0000000,0.0000202,0.0000000,0.0000000,0.0000040
362.9488520,1.0001000,,-0.9990961,0.0424244,-0.0016188,0.0021202,0.0004016,-0.0025033,0.0071282,,,,0.2173516,4.8160677,-15.9049110,0.0000000,0.0000000,0.0000000,0.0200020,0.0002033,0.0000000,0.0000000,0.0000203,0.0000000,0.0000000,0.0000000,0.0002033,0.0000000,0.0000000,0.0000203,0.0000000,0.0000000,0.0000000,0.0002033,0.0000000,0.0000000,0.0000203,0.0000203,0.0000000,0.0000000,0.0000040,0.0000000,0.0000000,0.0000000,0.0000203,0.0000000,0.0000000,0.0000040,0.0000000,0.0000000,0.0000000,0.0000203,0.0000000,0.0000000,0.0000040
362.9647100,,0.9999600,-0.9990961,0.0424244,-0.0016188,0.0021202,,,,0.0000000,0.0000000,0.0000000,0.2173516,4.8160677,-15.9049110,0.0000000,0.0000000,0.0000000,0.0999960,0.0001993,0.0000000,0.0000000,0.0000199,0.0000000,0.0000000,0.0000000,0.0001993,0.0000000,0.0000000,0.0000199,0.0000000,0.0000000,0.0000000,0.0001993,0.0000000,0.0000000,0.0000199,0.0000199,0.0000000,0.0000000,0.0000040,0.0000000,0.0000000,0.0000000,0.0000199,0.0000000,0.0000000,0.0000040,0.0000000,0.0000000,0.0000000,0.0000199,0.0000000,0.0000000,0.0000040
362.9784110,1.0003500,,-0.9990961,0.0424244,-0.0016126,0.0021248,-0.0039953,-0.0017399,0.0035641,,,,0.2173516,4.8160677,-15.9049110,0.0000000,0.0000000,0.0000000,0.0200070,0.0002001,0.0000000,0.0000000,0.0000200,0.0000000,0.0000000,0.0000000,0.0002001,0.0000000,0.0000000,0.0000200,0.0000000,0.0000000,0.0000000,0.0002001,0.0000000,0.0000000,0.0000200,0.0000200,0.0000000,0.0000000,0.0000040,0.0000000,0.0000000,0.0000000,0.0000200,0.0000000,0.0000000,0.0000040,0.0000000,0.0000000,0.0000000,0.0000200,0.0000000,0.0000000,0.0000040
362.9918000,1.1496000,,-0.9990962,0.0424245,-0.0015935,0.0021312,-0.0086047,0.0013349,-0.0031008,,,,0.2173516,4.8160677,-15.9049110,0.0000000,0.0000000,0.0000000,0.0229920,0.0002010,0.0000000,0.0000000,0.0000201,0.0000000,0.0000000,0.0000000,0.0002010,0.0000000,0.0000000,0.0000201,0.0000000,0.0000000,0.0000000,0.0002010,0.0000000,0.0000000,0.0000201,0.0000201,0.0000000,0.0000000,0.0000040,0.0000000,0.0000000,0.0000000,0.0000201,0.0000000,0.0000000,0.0000040,0.0000000,0.0000000,0.0000000,0.0000201,0.0000000,0.0000000,0.0000040
363.0129190,1.0504000,,-0.9990960,0.0424245,-0.0016042,0.0021555,0.0002829,-0.0007440,0.0021117,,,,0.2173516,4.8160677,-15.9049110,0.0000000,0.0000000,0.0000000,0.0210080,0.0002019,0.0000000,0.0000000,0.0000202,0.0000000,0.0000000,0.0000000,0.0002019,0.0000000,0.0000000,0.0000202,0.0000000,0.0000000,0.0000000,0.0002019,0.0000000,0.0000000,0.0000202,0.0000202,0.0000000,0.0000000,0.0000040,0.0000000,0.0000000,0.0000000,0.0000202,0.0000000,0.0000000,0.0000040,0.0000000,0.0000000,0.0000000,0.0000202,0.0000000,0.0000000,0.0000040
363.0330080,0.9995500,,-0.9990960,0.0424245,-0.0016171,0.0021717,-0.0004155,-0.0017758,0.0022766,,,,0.2173516,4.8160677,-15.9049110,0.0000000,0.0000000,0.0000000,0.0199910,0.0002027,0.0000000,0.0000000,0.0000202,0.0000000,0.0000000,0.0000000,0.0002027,0.0000000,0.0000000,0.0000202,0.0000000,0.0000000,0.0000000,0.0002027,0.0000000,0.0000000,0.0000202,0.0000202,0.0000000,0.0000000,0.0000040,0.0000000,0.0000000,0.0000000,0.0000202,0.0000000,0.0000000,0.0000040,0.0000000,0.0000000,0.0000000,0.0000202,0.0000000,0.0000000,0.0000040
363.0520920,,1.0000000,-0.9990960,0.0424245,-0.0015999,0.0021655,,,,0.0000000,0.0000000,0.0000000,0.2173516,4.8160677,-15.9049110,0.0000000,0.0000000,0.0000000,0.1000000,0.0001986,0.0000000,0.0000000,0.0000198,0.0000000,0.0000000,0.0000000,0.0001986,0.0000000,0.0000000,0.0000198,0.0000000,0.0000000,0.0000000,0.0001986,0.0000000,0.0000000,0.0000198,0.0000198,0.0000000,0.0000000,0.0000040,0.0000000,0.0000000,0.0000000,0.0000198,0.0000000,0.0000000,0.0000040,0.0000000,0.0000000,0.0000000,0.0000198,0.0000000,0.0000000,0.0000040
363.0667920,1.0007499,,-0.9990960,0.0424245,-0.0015999,0.0021655,-0.0036486,-0.0040312,0.0033355,,,,0.2173516,4.8160677,-15.9049110,0.0000000,0.0000000,0.0000000,0.0200150,0.0001994,0.0000000,0.0000000,0.0000199,0.0000000,0.0000000,0.0000000,0.0001994,0.0000000,0.0000000,0.0000199,0.0000000,0.0000000,0.0000000,0.0001994,0.0000000,0.0000000,0.0000199,0.0000199,0.0000000,0.0000000,0.0000040,0.0000000,0.0000000,0.0000000,0.0000199,0.0000000,0.0000000,0.0000040,0.0000000,0.0000000,0.0000000,0.0000199,0.0000000,0.0000000,0.0000040
363.0812580,1.3493000,,-0.9990960,0.0424245,-0.0016009,0.0021475,-0.0021066,-0.0012832,0.0031326,,,,0.2173516,4.8160677,-15.9049110,0.0000000,0.0000000,0.0000000,0.0269860,0.0002005,0.0000000,0.0000000,0.0000200,0.0000000,0.0000000,0.0000000,0.0002005,0.0000000,0.0000000,0.0000200,0.0000000,0.0000000,0.0000000,0.0002005,0.0000000,0.0000000,0.0000200,0.0000200,0.0000000,0.0000000,0.0000040,0.0000000,0.0000000,0.0000000,0.0000200,0.0000000,0.0000000,0.0000040,0.0000000,0.0000000,0.0000000,0.0000200,0.0000000,0.0000000,0.0000040
363.0997970,1.0000000,,-0.9990960,0.0424245,-0.0016109,0.0021399,0.0084072,-0.0020988,0.0001015,,,,0.2173516,4.8160677,-15.9049110,0.0000000,0.0000000,0.0000000,0.0200000,0.0002013,0.0000000,0.0000000,0.0000201,0.0000000,0.0000000,0.0000000,0.0002013,0.0000000,0.0000000,0.0000201,0.0000000,0.0000000,0.0000000,0.0002013,0.0000000,0.0000000,0.0000201,0.0000201,0.0000000,0.0000000,0.0000040,0.0000000,0.0000000,0.0000000,0.0000201,0.0000000,0.0000000,0.0000040,0.0000000,0.0000000,0.0000000,0.0000201,0.0000000,0.0000000,0.0000040
363.1198880,1.0000501,,-0.9990962,0.0424245,-0.0016082,0.0021178,0.0056226,0.0084416,0.0037128,,,,0.2173516,4.8160677,-15.9049110,0.0000000,0.0000000,0.0000000,0.0200010,0.0002021,0.0000000,0.0000000,0.0000202,0.0000000,0.0000000,0.0000000,0.0002021,0.0000000,0.0000000,0.0000202,0.0000000,0.0000000,0.0000000,0.0002021,0.0000000,0.0000000,0.0000202,0.0000202,0.0000000,0.0000000,0.0000040,0.0000000,0.0000000,0.0000000,0.0000202,0.0000000,0.0000000,0.0000040,0.0000000,0.0000000,0.0000000,0.0000202,0.0000000,0.0000000,0.0000040
363.1400710,1.0002999,,-0.9990962,0.0424245,-0.0016214,0.0021133,0.0083503,0.0066469,0.0021006,,,,0.2173516,4.8160677,-15.9049110,0.0000000,0.0000000,0.0000000,0.0200060,0.0002029,0.0000000,0.0000000,0.0000203,0.0000000,0.0000000,0.0000000,0.0002029,0.0000000,0.0000000,0.0000203,0.0000000,0.0000000,0.0000000,0.0002029,0.0000000,0.0000000,0.0000203,0.0000203,0.0000000,0.0000000,0.0000040,0.0000000,0.0000000,0.0000000,0.0000203,0.0000000,0.0000000,0.0000040,0.0000000,0.0000000,0.0000000,0.0000203,0.0000000,0.0000000,0.0000040
363.1558800,,1.0000100,-0.9990962,0.0424245,-0.0016214,0.0021385,,,,0.0000000,0.0000000,0.0000000,0.2173516,4.8160677,-15.9049110,0.0000000,0.0000000,0.0000000,0.1000010,0.0001989,0.0000000,0.0000000,0.0000199,0.0000000,0.0000000,0.0000000,0.0001989,0.0000000,0.0000000,0.0000199,0.0000000,0.0000000,0.0000000,0.0001989,0.0000000,0.0000000,0.0000199,0.0000199,0.0000000,0.0000000,0.0000040,0.0000000,0.0000000,0.0000000,0.0000199,0.0000000,0.0000000,0.0000040,0.0000000,0.0000000,0.0000000,0.0000199,0.0000000,0.0000000,0.0000040
363.1698860,0.9996500,,-0.9990961,0.0424245,-0.0016059,0.0021385,-0.0024472,-0.0027419,0.0020268,,,,0.2173516,4.8160677,-15.9049110,0.0000000,0.0000000,0.0000000,0.0199930,0.0001997,0.0000000,0.0000000,0.0000199,0.0000000,0.0000000,0.0000000,0.0001997,0.0000000,0.0000000,0.0000199,0.0000000,0.0000000,0.0000000,0.0001997,0.0000000,0.0000000,0.0000199,0.0000199,0.0000000,0.0000000,0.0000040,0.0000000,0.0000000,0.0000000,0.0000199,0.0000000,0.0000000,0.0000040,0.0000000,0.0000000,0.0000000,0.0000199,0.0000000,0.0000000,0.0000040
363.1827640,1.1499500,,-0.9990962,0.0424246,-0.0016004,0.0021341,-0.0012617,0.0042443,-0.0016721,,,,0.2173516,4.8160677,-15.9049110,0.0000000,0.0000000,0.0000000,0.0229990,0.0002006,0.0000000,0.0000000,0.0000200,0.0000000,0.0000000,0.0000000,0.0002006,0.0000000,0.0000000,0.0000200,0.0000000,0.0000000,0.0000000,0.0002006,0.0000000,0.0000000,0.0000200,0.0000200,0.0000000,0.0000000,0.0000040,0.0000000,0.0000000,0.0000000,0.0000200,0.0000000,0.0000000,0.0000040,0.0000000,0.0000000,0.0000000,0.0000200,0.0000000,0.0000000,0.0000040
363.2037460,1.0501001,,-0.9990961,0.0424246,-0.0016009,0.0021552,0.0007958,0.0007031,-0.0049865,,,,0.2173516,4.8160677,-15.9049110,0.0000000,0.0000000,0.0000000,0.0210020,0.0002014,0.0000000,0.0000000,0.0000201,0.0000000,0.0000000,0.0000000,0.0002014,0.0000000,0.0000000,0.0000201,0.0000000,0.0000000,0.0000000,0.0002014,0.0000000,0.0000000,0.0000201,0.0000201,0.0000000,0.0000000,0.0000040,0.0000000,0.0000000,0.0000000,0.0000201,0.0000000,0.0000000,0.0000040,0.0000000,0.0000000,0.0000000,0.0000201,0.0000000,0.0000000,0.0000040
363.2262050,1.0499500,,-0.9990960,0.0424246,-0.0016079,0.0021696,0.0049832,0.0013815,-0.0010284,,,,0.2173516,4.8160677,-15.9049110,0.0000000,0.0000000,0.0000000,0.0209990,0.0002023,0.0000000,0.0000000,0.0000202,0.0000000,0.0000000,0.0000000,0.0002023,0.0000000,0.0000000,0.0000202,0.0000000,0.0000000,0.0000000,0.0002023,0.0000000,0.0000000,0.0000202,0.0000202,0.0000000,0.0000000,0.0000040,0.0000000,0.0000000,0.0000000,0.0000202,0.0000000,0.0000000,0.0000040,0.0000000,0.0000000,0.0000000,0.0000202,0.0000000,0.0000000,0.0000040
363.2448870,1.0000501,,-0.9990960,0.0424247,-0.0016053,0.0021835,0.0031859,0.0010036,-0.0053970,,,,0.2173516,4.8160677,-15.9049110,0.0000000,0.0000000,0.0000000,0.0200010,0.0002031,0.0000000,0.0000000,0.0000203,0.0000000,0.0000000,0.0000000,0.0002031,0.0000000,0.0000000,0.0000203,0.0000000,0.0000000,0.0000000,0.0002031,0.0000000,0.0000000,0.0000203,0.0000203,0.0000000,0.0000000,0.0000040,0.0000000,0.0000000,0.0000000,0.0000203,0.0000000,0.0000000,0.0000040,0.0000000,0.0000000,0.0000000,0.0000203,0.0000000,0.0000000,0.0000040
363.2606190,,1.0200800,-0.9990960,0.0424247,-0.0016053,0.0021835,,,,0.0000000,0.0000000,0.0000000,0.2173516,4.8160677,-15.9049110,0.0000000,0.0000000,0.0000000,0.1020080,0.0001990,0.0000000,0.0000000,0.0000199,0.0000000,0.0000000,0.0000000,0.0001990,0.0000000,0.0000000,0.0000199,0.0000000,0.0000000,0.0000000,0.0001990,0.0000000,0.0000000,0.0000199,0.0000199,0.0000000,0.0000000,0.0000040,0.0000000,0.0000000,0.0000000,0.0000199,0.0000000,0.0000000,0.0000040,0.0000000,0.0000000,0.0000000,0.0000199,0.0000000,0.0000000,0.0000040
363.2745270,0.9999500,,-0.9990961,0.0424247,-0.0015831,0.0021631,0.0052550,0.0022260,-0.0012337,,,,0.2173516,4.8160677,-15.9049110,0.0000000,0.0000000,0.0000000,0.0199990,0.0001998,0.0000000,0.0000000,0.0000200,0.0000000,0.0000000,0.0000000,0.0001998,0.0000000,0.0000000,0.0000200,0.0000000,0.0000000,0.0000000,0.0001998,0.0000000,0.0000000,0.0000200,0.0000200,0.0000000,0.0000000,0.0000040,0.0000000,0.0000000,0.0000000,0.0000200,0.0000000,0.0000000,0.0000040,0.0000000,0.0000000,0.0000000,0.0000200,0.0000000,0.0000000,0.0000040
363.2876130,1.1499500,,-0.9990962,0.0424247,-0.0015817,0.0021356,0.0069992,0.0008460,-0.0008610,,,,0.2173516,4.8160677,-15.9049110,0.0000000,0.0000000,0.0000000,0.0229990,0.0002008,0.0000000,0.0000000,0.0000201,0.0000000,0.0000000,0.0000000,0.0002008,0.0000000,0.0000000,0.0000201,0.0000000,0.0000000,0.0000000,0.0002008,0.0000000,0.0000000,0.0000201,0.0000201,0.0000000,0.0000000,0.0000040,0.0000000,0.0000000,0.0000000,0.0000201,0.0000000,0.0000000,0.0000040,0.0000000,0.0000000,0.0000000,0.0000201,0.0000000,0.0000000,0.0000040
363.3089060,1.0500500,,-0.9990962,0.0424246,-0.0016030,0.0021131,0.0046516,-0.0008359,-0.0038485,,,,0.2173516,4.8160677,-15.9049110,0.0000000,0.0000000,0.0000000,0.0210010,0.0002016,0.0000000,0.0000000,0.0000201,0.0000000,0.0000000,0.0000000,0.0002016,0.0000000,0.0000000,0.0000201,0.0000000,0.0000000,0.0000000,0.0002016,0.0000000,0.0000000,0.0000201,0.0000201,0.0000000,0.0000000,0.0000040,0.0000000,0.0000000,0.0000000,0.0000201,0.0000000,0.0000000,0.0000040,0.0000000,0.0000000,0.0000000,0.0000201,0.0000000,0.0000000,0.0000040
363.3312330,1.0500500,,-0.9990962,0.0424246,-0.0016112,0.0021024,-0.0023739,-0.0033858,-0.0021684,,,,0.2173516,4.8160677,-15.9049110,0.0000000,0.0000000,0.0000000,0.0210010,0.0002025,0.0000000,0.0000000,0.0000202,0.0000000,0.0000000,0.0000000,0.0002025,0.0000000,0.0000000,0.0000202,0.0000000,0.0000000,0.0000000,0.0002025,0.0000000,0.0000000,0.0000202,0.0000202,0.0000000,0.0000000,0.0000040,0.0000000,0.0000000,0.0000000,0.0000202,0.0000000,0.0000000,0.0000040,0.0000000,0.0000000,0.0000000,0.0000202,0.0000000,0.0000000,0.0000040
363.3498980,1.0000000,,-0.9990962,0.0424245,-0.0016292,0.0021004,0.0004305,-0.0068504,0.0023338,,,,0.2173516,4.8160677,-15.9049110,0.0000000,0.0000000,0.0000000,0.0200000,0.0002033,0.0000000,0.0000000,0.0000203,0.0000000,0.0000000,0.0000000,0.0002033,0.0000000,0.0000000,0.0000203,0.0000000,0.0000000,0.0000000,0.0002033,0.0000000,0.0000000,0.0000203,0.0000203,0.0000000,0.0000000,0.0000040,0.0000000,0.0000000,0.0000000,0.0000203,0.0000000,0.0000000,0.0000040,0.0000000,0.0000000,0.0000000,0.0000203,0.0000000,0.0000000,0.0000040
363.3655630,,0.9999400,-0.9990962,0.0424245,-0.0016292,0.0021004,,,,0.0000000,0.0000000,0.0000000,0.2173516,4.8160677,-15.9049110,0.0000000,0.0000000,0.0000000,0.0999940,0.0001992,0.0000000,0.0000000,0.0000199,0.0000000,0.0000000,0.0000000,0.0001992,0.0000000,0.0000000,0.0000199,0.0000000,0.0000000,0.0000000,0.0001992,0.0000000,0.0000000,0.0000199,0.0000199,0.0000000,0.0000000,0.0000040,0.0000000,0.0000000,0.0000000,0.0000199,0.0000000,0.0000000,0.0000040,0.0000000,0.0000000,0.0000000,0.0000199,0.0000000,0.0000000,0.0000040
363.3793110,0.9999500,,-0.9990962,0.0424245,-0.0016357,0.0020927,0.0003755,0.0031285,-0.0010304,,,,0.2173516,4.8160677,-15.9049110,0.0000000,0.0000000,0.0000000,0.0199990,0.0002000,0.0000000,0.0000000,0.0000200,0.0000000,0.0000000,0.0000000,0.0002000,0.0000000,0.0000000,0.0000200,0.0000000,0.0000000,0.0000000,0.0002000,0.0000000,0.0000000,0.0000200,0.0000200,0.0000000,0.0000000,0.0000040,0.0000000,0.0000000,0.0000000,0.0000200,0.0000000,0.0000000,0.0000040,0.0000000,0.0000000,0.0000000,0.0000200,0.0000000,0.0000000,0.0000040
363.3926540,1.1499500,,-0.9990962,0.0424245,-0.0016408,0.0020718,-0.0001480,0.0012438,0.0055883,,,,0.2173516,4.8160677,-15.9049110,0.0000000,0.0000000,0.0000000,0.0229990,0.0002009,0.0000000,0.0000000,0.0000201,0.0000000,0.0000000,0.0000000,0.0002009,0.0000000,0.0000000,0.0000201,0.0000000,0.0000000,0.0000000,0.0002009,0.0000000,0.0000000,0.0000201,0.0000201,0.0000000,0.0000000,0.0000040,0.0000000,0.0000000,0.0000000,0.0000201,0.0000000,0.0000000,0.0000040,0.0000000,0.0000000,0.0000000,0.0000201,0.0000000,0.0000000,0.0000040
363.4137190,1.0501001,,-0.9990963,0.0424245,-0.0016267,0.0020401,0.0025505,0.0056268,0.0047473,,,,0.2173516,4.8160677,-15.9049110,0.0000000,0.0000000,0.0000000,0.0210020,0.0002018,0.0000000,0.0000000,0.0000202,0.0000000,0.0000000,0.0000000,0.0002018,0.0000000,0.0000000,0.0000202,0.0000000,0.0000000,0.0000000,0.0002018,0.0000000,0.0000000,0.0000202,0.0000202,0.0000000,0.0000000,0.0000040,0.0000000,0.0000000,0.0000000,0.0000202,0.0000000,0.0000000,0.0000040,0.0000000,0.0000000,0.0000000,0.0000202,0.0000000,0.0000000,0.0000040
363.4362040,1.0498999,,-0.9990963,0.0424245,-0.0016202,0.0020356,-0.0024479,0.0019818,0.0055475,,,,0.2173516,4.8160677,-15.9049110,0.0000000,0.0000000,0.0000000,0.0209980,0.0002026,0.0000000,0.0000000,0.0000202,0.0000000,0.0000000,0.0000000,0.0002026,0.0000000,0.0000000,0.0000202,0.0000000,0.0000000,0.0000000,0.0002026,0.0000000,0.0000000,0.0000202,0.0000202,0.0000000,0.0000000,0.0000040,0.0000000,0.0000000,0.0000000,0.0000202,0.0000000,0.0000000,0.0000040,0.0000000,0.0000000,0.0000000,0.0000202,0.0000000,0.0000000,0.0000040
363.4540850,,0.9999700,-0.9990963,0.0424245,-0.0016205,0.0020556,,,,0.0000000,0.0000000,0.0000000,0.2173516,4.8160677,-15.9049110,0.0000000,0.0000000,0.0000000,0.0999970,0.0001986,0.0000000,0.0000000,0.0000198,0.0000000,0.0000000,0.0000000,0.0001986,0.0000000,0.0000000,0.0000198,0.0000000,0.0000000,0.0000000,0.0001986,0.0000000,0.0000000,0.0000198,0.0000198,0.0000000,0.0000000,0.0000040,0.0000000,0.0000000,0.0000000,0.0000198,0.0000000,0.0000000,0.0000040,0.0000000,0.0000000,0.0000000,0.0000198,0.0000000,0.0000000,0.0000040
363.4678970,1.0002000,,-0.9990963,0.0424245,-0.0016205,0.0020556,-0.0012850,-0.0017481,0.0022855,,,,0.2173516,4.8160677,-15.9049110,0.0000000,0.0000000,0.0000000,0.0200040,0.0001994,0.0000000,0.0000000,0.0000199,0.0000000,0.0000000,0.0000000,0.0001994,0.0000000,0.0000000,0.0000199,0.0000000,0.0000000,0.0000000,0.0001994,0.0000000,0.0000000,0.0000199,0.0000199,0.0000000,0.0000000,0.0000040,0.0000000,0.0000000,0.0000000,0.0000199,0.0000000,0.0000000,0.0000040,0.0000000,0.0000000,0.0000000,0.0000199,0.0000000,0.0000000,0.0000040
363.4804270,1.3002000,,-0.9990963,0.0424245,-0.0016344,0.0020518,-0.0026872,-0.0058331,0.0008986,,,,0.2173516,4.8160677,-15.9049110,0.0000000,0.0000000,0.0000000,0.0260040,0.0002004,0.0000000,0.0000000,0.0000200,0.0000000,0.0000000,0.0000000,0.0002004,0.0000000,0.0000000,0.0000200,0.0000000,0.0000000,0.0000000,0.0002004,0.0000000,0.0000000,0.0000200,0.0000200,0.0000000,0.0000000,0.0000040,0.0000000,0.0000000,0.0000000,0.0000200,0.0000000,0.0000000,0.0000040,0.0000000,0.0000000,0.0000000,0.0000200,0.0000000,0.0000000,0.0000040
363.5018950,1.0496501,,-0.9990963,0.0424245,-0.0016445,0.0020412,0.0029518,-0.0015433,0.0026466,,,,0.2173516,4.8160677,-15.9049110,0.0000000,0.0000000,0.0000000,0.0209930,0.0002013,0.0000000,0.0000000,0.0000201,0.0000000,0.0000000,0.0000000,0.0002013,0.0000000,0.0000000,0.0000201,0.0000000,0.0000000,0.0000000,0.0002013,0.0000000,0.0000000,0.0000201,0.0000201,0.0000000,0.0000000,0.0000040,0.0000000,0.0000000,0.0000000,0.0000201,0.0000000,0.0000000,0.0000040,0.0000000,0.0000000,0.0000000,0.0000201,0.0000000,0.0000000,0.0000040
363.5232570,1.0003999,,-0.9990963,0.0424245,-0.0016377,0.0020325,0.0084797,0.0005940,0.0047412,,,,0.2173516,4.8160677,-15.9049110,0.0000000,0.0000000,0.0000000,0.0200080,0.0002021,0.0000000,0.0000000,0.0000202,0.0000000,0.0000000,0.0000000,0.0002021,0.0000000,0.0000000,0.0000202,0.0000000,0.0000000,0.0000000,0.0002021,0.0000000,0.0000000,0.0000202,0.0000202,0.0000000,0.0000000,0.0000040,0.0000000,0.0000000,0.0000000,0.0000202,0.0000000,0.0000000,0.0000040,0.0000000,0.0000000,0.0000000,0.0000202,0.0000000,0.0000000,0.0000040
363.5419100,0.9999500,,-0.9990963,0.0424245,-0.0016341,0.0020063,0.0073374,0.0055231,0.0006616,,,,0.2173516,4.8160677,-15.9049110,0.0000000,0.0000000,0.0000000,0.0199990,0.0002029,0.0000000,0.0000000,0.0000203,0.0000000,0.0000000,0.0000000,0.0002029,0.0000000,0.0000000,0.0000203,0.0000000,0.0000000,0.0000000,0.0002029,0.0000000,0.0000000,0.0000203,0.0000203,0.0000000,0.0000000,0.0000040,0.0000000,0.0000000,0.0000000,0.0000203,0.0000000,0.0000000,0.0000040,0.0000000,0.0000000,0.0000000,0.0000203,0.0000000,0.0000000,0.0000040
363.5579830,,1.0000199,-0.9990963,0.0424245,-0.0016341,0.0020063,,,,0.0000000,0.0000000,0.0000000,0.2173516,4.8160677,-15.9049110,0.0000000,0.0000000,0.0000000,0.1000020,0.0001988,0.0000000,0.0000000,0.0000199,0.0000000,0.0000000,0.0000000,0.0001988,0.0000000,0.0000000,0.0000199,0.0000000,0.0000000,0.0000000,0.0001988,0.0000000,0.0000000,0.0000199,0.0000199,0.0000000,0.0000000,0.0000040,0.0000000,0.0000000,0.0000000,0.0000199,0.0000000,0.0000000,0.0000040,0.0000000,0.0000000,0.0000000,0.0000199,0.0000000,0.0000000,0.0000040
363.5715740,1.0000000,,-0.9990964,0.0424244,-0.0016509,0.0019824,0.0091695,0.0028379,0.0030164,,,,0.2173516,4.8160677,-15.9049110,0.0000000,0.0000000,0.0000000,0.0200000,0.0001996,0.0000000,0.0000000,0.0000199,0.0000000,0.0000000,0.0000000,0.0001996,0.0000000,0.0000000,0.0000199,0.0000000,0.0000000,0.0000000,0.0001996,0.0000000,0.0000000,0.0000199,0.0000199,0.0000000,0.0000000,0.0000040,0.0000000,0.0000000,0.0000000,0.0000199,0.0000000,0.0000000,0.0000040,0.0000000,0.0000000,0.0000000,0.0000199,0.0000000,0.0000000,0.0000040
363.5846650,1.1496000,,-0.9990965,0.0424244,-0.0016513,0.0019461,0.0047297,0.0051116,-0.0004449,,,,0.2173516,4.8160677,-15.9049110,0.0000000,0.0000000,0.0000000,0.0229920,0.0002006,0.0000000,0.0000000,0.0000200,0.0000000,0.0000000,0.0000000,0.0002006,0.0000000,0.0000000,0.0000200,0.0000000,0.0000000,0.0000000,0.0002006,0.0000000,0.0000000,0.0000200,0.0000200,0.0000000,0.0000000,0.0000040,0.0000000,0.0000000,0.0000000,0.0000200,0.0000000,0.0000000,0.0000040,0.0000000,0.0000000,0.0000000,0.0000200,0.0000000,0.0000000,0.0000040
363.6058300,1.0501001,,-0.9990965,0.0424243,-0.0016694,0.0019186,0.0041806,0.0057449,0.0022189,,,,0.2173516,4.8160677,-15.9049110,0.0000000,0.0000000,0.0000000,0.0210020,0.0002014,0.0000000,0.0000000,0.0000201,0.0000000,0.0000000,0.0000000,0.0002014,0.0000000,0.0000000,0.0000201,0.0000000,0.0000000,0.0000000,0.0002014,0.0000000,0.0000000,0.0000201,0.0000201,0.0000000,0.0000000,0.0000040,0.0000000,0.0000000,0.0000000,0.0000201,0.0000000,0.0000000,0.0000040,0.0000000,0.0000000,0.0000000,0.0000201,0.0000000,0.0000000,0.0000040
363.6272120,1.0001000,,-0.9990965,0.0424243,-0.0016782,0.0019010,0.0043944,0.0028801,0.0062364,,,,0.2173516,4.8160677,-15.9049110,0.0000000,0.0000000,0.0000000,0.0200020,0.0002022,0.0000000,0.0000000,0.0000202,0.0000000,0.0000000,0.0000000,0.0002022,0.0000000,0.0000000,0.0000202,0.0000000,0.0000000,0.0000000,0.0002022,0.0000000,0.0000000,0.0000202,0.0000202,0.0000000,0.0000000,0.0000040,0.0000000,0.0000000,0.0000000,0.0000202,0.0000000,0.0000000,0.0000040,0.0000000,0.0000000,0.0000000,0.0000202,0.0000000,0.0000000,0.0000040
363.6460320,1.0001501,,-0.9990965,0.0424243,-0.0016657,0.0018966,0.0033187,0.0016918,-0.0022529,,,,0.2173516,4.8160677,-15.9049110,0.0000000,0.0000000,0.0000000,0.0200030,0.0002030,0.0000000,0.0000000,0.0000203,0.0000000,0.0000000,0.0000000,0.0002030,0.0000000,0.0000000,0.0000203,0.0000000,0.0000000,0.0000000,0.0002030,0.0000000,0.0000000,0.0000203,0.0000203,0.0000000,0.0000000,0.0000040,0.0000000,0.0000000,0.0000000,0.0000203,0.0000000,0.0000000,0.0000040,0.0000000,0.0000000,0.0000000,0.0000203,0.0000000,0.0000000,0.0000040
363.6617380,,1.0199800,-0.9990965,0.0424243,-0.0016657,0.0018899,,,,0.0000000,0.0000000,0.0000000,0.2173516,4.8160677,-15.9049110,0.0000000,0.0000000,0.0000000,0.1019980,0.0001990,0.0000000,0.0000000,0.0000199,0.0000000,0.0000000,0.0000000,0.0001990,0.0000000,0.0000000,0.0000199,0.0000000,0.0000000,0.0000000,0.0001990,0.0000000,0.0000000,0.0000199,0.0000199,0.0000000,0.0000000,0.0000040,0.0000000,0.0000000,0.0000000,0.0000199,0.0000000,0.0000000,0.0000040,0.0000000,0.0000000,0.0000000,0.0000199,0.0000000,0.0000000,0.0000040
363.6754760,0.9998000,,-0.9990965,0.0424243,-0.0016469,0.0018899,0.0020713,-0.0020838,-0.0055210,,,,0.2173516,4.8160677,-15.9049110,0.0000000,0.0000000,0.0000000,0.0199960,0.0001998,0.0000000,0.0000000,0.0000200,0.0000000,0.0000000,0.0000000,0.0001998,0.0000000,0.0000000,0.0000200,0.0000000,0.0000000,0.0000000,0.0001998,0.0000000,0.0000000,0.0000200,0.0000200,0.0000000,0.0000000,0.0000040,0.0000000,0.0000000,0.0000000,0.0000200,0.0000000,0.0000000,0.0000040,0.0000000,0.0000000,0.0000000,0.0000200,0.0000000,0.0000000,0.0000040
363.6887510,1.1498500,,-0.9990966,0.0424243,-0.0016374,0.0018740,-0.0031910,0.0008883,-0.0008074,,,,0.2173516,4.8160677,-15.9049110,0.0000000,0.0000000,0.0000000,0.0229970,0.0002007,0.0000000,0.0000000,0.0000200,0.0000000,0.0000000,0.0000000,0.0002007,0.0000000,0.0000000,0.0000200,0.0000000,0.0000000,0.0000000,0.0002007,0.0000000,0.0000000,0.0000200,0.0000200,0.0000000,0.0000000,0.0000040,0.0000000,0.0000000,0.0000000,0.0000200,0.0000000,0.0000000,0.0000040,0.0000000,0.0000000,0.0000000,0.0000200,0.0000000,0.0000000,0.0000040
363.7112190,1.0500500,,-0.9990966,0.0424244,-0.0016179,0.0018681,-0.0023737,0.0028627,-0.0021127,,,,0.2173516,4.8160677,-15.9049110,0.0000000,0.0000000,0.0000000,0.0210010,0.0002015,0.0000000,0.0000000,0.0000201,0.0000000,0.0000000,0.0000000,0.0002015,0.0000000,0.0000000,0.0000201,0.0000000,0.0000000,0.0000000,0.0002015,0.0000000,0.0000000,0.0000201,0.0000201,0.0000000,0.0000000,0.0000040,0.0000000,0.0000000,0.0000000,0.0000201,0.0000000,0.0000000,0.0000040,0.0000000,0.0000000,0.0000000,0.0000201,0.0000000,0.0000000,0.0000040
363.7297940,1.0000000,,-0.9990966,0.0424244,-0.0016182,0.0018608,0.0024066,0.0038422,-0.0013005,,,,0.2173516,4.8160677,-15.9049110,0.0000000,0.0000000,0.0000000,0.0200000,0.0002023,0.0000000,0.0000000,0.0000202,0.0000000,0.0000000,0.0000000,0.0002023,0.0000000,0.0000000,0.0000202,0.0000000,0.0000000,0.0000000,0.0002023,0.0000000,0.0000000,0.0000202,0.0000202,0.0000000,0.0000000,0.0000040,0.0000000,0.0000000,0.0000000,0.0000202,0.0000000,0.0000000,0.0000040,0.0000000,0.0000000,0.0000000,0.0000202,0.0000000,0.0000000,0.0000040
363.7499090,0.9999500,,-0.9990967,0.0424244,-0.0015936,0.0018554,-0.0044348,-0.0000702,0.0059416,,,,0.2173516,4.8160677,-15.9049110,0.0000000,0.0000000,0.0000000,0.0199990,0.0002031,0.0000000,0.0000000,0.0000203,0.0000000,0.0000000,0.0000000,0.0002031,0.0000000,0.0000000,0.0000203,0.0000000,0.0000000,0.0000000,0.0002031,0.0000000,0.0000000,0.0000203,0.0000203,0.0000000,0.0000000,0.0000040,0.0000000,0.0000000,0.0000000,0.0000203,0.0000000,0.0000000,0.0000040,0.0000000,0.0000000,0.0000000,0.0000203,0.0000000,0.0000000,0.0000040
363.7657340,,1.0200399,-0.9990967,0.0424244,-0.0015936,0.0018554,,,,0.0000000,0.0000000,0.0000000,0.2173516,4.8160677,-15.9049110,0.0000000,0.0000000,0.0000000,0.1020040,0.0001991,0.0000000,0.0000000,0.0000199,0.0000000,0.0000000,0.0000000,0.0001991,0.0000000,0.0000000,0.0000199,0.0000000,0.0000000,0.0000000,0.0001991,0.0000000,0.0000000,0.0000199,0.0000199,0.0000000,0.0000000,0.0000040,0.0000000,0.0000000,0.0000000,0.0000199,0.0000000,0.0000000,0.0000040,0.0000000,0.0000000,0.0000000,0.0000199,0.0000000,0.0000000,0.0000040
363.7797590,1.0001000,,-0.9990968,0.0424244,-0.0015839,0.0018425,-0.0049258,0.0047943,0.0061446,,,,0.2173516,4.8160677,-15.9049110,0.0000000,0.0000000,0.0000000,0.0200020,0.0001999,0.0000000,0.0000000,0.0000200,0.0000000,0.0000000,0.0000000,0.0001999,0.0000000,0.0000000,0.0000200,0.0000000,0.0000000,0.0000000,0.0001999,0.0000000,0.0000000,0.0000200,0.0000200,0.0000000,0.0000000,0.0000040,0.0000000,0.0000000,0.0000000,0.0000200,0.0000000,0.0000000,0.0000040,0.0000000,0.0000000,0.0000000,0.0000200,0.0000000,0.0000000,0.0000040
363.7926050,1.1499500,,-0.9990968,0.0424244,-0.0015889,0.0018539,-0.0022646,-0.0015243,0.0057579,,,,0.2173516,4.8160677,-15.9049110,0.0000000,0.0000000,0.0000000,0.0229990,0.0002008,0.0000000,0.0000000,0.0000201,0.0000000,0.0000000,0.0000000,0.0002008,0.0000000,0.0000000,0.0000201,0.0000000,0.0000000,0.0000000,0.0002008,0.0000000,0.0000000,0.0000201,0.0000201,0.0000000,0.0000000,0.0000040,0.0000000,0.0000000,0.0000000,0.0000201,0.0000000,0.0000000,0.0000040,0.0000000,0.0000000,0.0000000,0.0000201,0.0000000,0.0000000,0.0000040
363.8139500,1.0501001,,-0.9990968,0.0424244,-0.0015966,0.0018397,0.0032088,0.0001534,0.0043438,,,,0.2173516,4.8160677,-15.9049110,0.0000000,0.0000000,0.0000000,0.0210020,0.0002016,0.0000000,0.0000000,0.0000201,0.0000000,0.0000000,0.0000000,0.0002016,0.0000000,0.0000000,0.0000201,0.0000000,0.0000000,0.0000000,0.0002016,0.0000000,0.0000000,0.0000201,0.0000201,0.0000000,0.0000000,0.0000040,0.0000000,0.0000000,0.0000000,0.0000201,0.0000000,0.0000000,0.0000040,0.0000000,0.0000000,0.0000000,0.0000201,0.0000000,0.0000000,0.0000040
363.8338410,0.9999000,,-0.9990968,0.0424243,-0.0016206,0.0018145,0.0110267,0.0019382,0.0043692,,,,0.2173516,4.8160677,-15.9049110,0.0000000,0.0000000,0.0000000,0.0199980,0.0002025,0.0000000,0.0000000,0.0000202,0.0000000,0.0000000,0.0000000,0.0002025,0.0000000,0.0000000,0.0000202,0.0000000,0.0000000,0.0000000,0.0002025,0.0000000,0.0000000,0.0000202,0.0000202,0.0000000,0.0000000,0.0000040,0.0000000,0.0000000,0.0000000,0.0000202,0.0000000,0.0000000,0.0000040,0.0000000,0.0000000,0.0000000,0.0000202,0.0000000,0.0000000,0.0000040
363.8541700,0.9999500,,-0.9990968,0.0424243,-0.0016398,0.0017853,0.0115024,0.0049974,0.0016963,,,,0.2173516,4.8160677,-15.9049110,0.0000000,0.0000000,0.0000000,0.0199990,0.0002033,0.0000000,0.0000000,0.0000203,0.0000000,0.0000000,0.0000000,0.0002033,0.0000000,0.0000000,0.0000203,0.0000000,0.0000000,0.0000000,0.0002033,0.0000000,0.0000000,0.0000203,0.0000203,0.0000000,0.0000000,0.0000040,0.0000000,0.0000000,0.0000000,0.0000203,0.0000000,0.0000000,0.0000040,0.0000000,0.0000000,0.0000000,0.0000203,0.0000000,0.0000000,0.0000040
363.8710580,,1.0000000,-0.9990968,0.0424243,-0.0016398,0.0018056,,,,0.0000000,0.0000000,0.0000000,0.2173516,4.8160677,-15.9049110,0.0000000,0.0000000,0.0000000,0.1000000,0.0001992,0.0000000,0.0000000,0.0000199,0.0000000,0.0000000,0.0000000,0.0001992,0.0000000,0.0000000,0.0000199,0.0000000,0.0000000,0.0000000,0.0001992,0.0000000,0.0000000,0.0000199,0.0000199,0.0000000,0.0000000,0.0000040,0.0000000,0.0000000,0.0000000,0.0000199,0.0000000,0.0000000,0.0000040,0.0000000,0.0000000,0.0000000,0.0000199,0.0000000,0.0000000,0.0000040
363.8849280,1.0002501,,-0.9990967,0.0424243,-0.0016495,0.0018056,0.0061251,-0.0026816,0.0023130,,,,0.2173516,4.8160677,-15.9049110,0.0000000,0.0000000,0.0000000,0.0200050,0.0002000,0.0000000,0.0000000,0.0000200,0.0000000,0.0000000,0.0000000,0.0002000,0.0000000,0.0000000,0.0000200,0.0000000,0.0000000,0.0000000,0.0002000,0.0000000,0.0000000,0.0000200,0.0000200,0.0000000,0.0000000,0.0000040,0.0000000,0.0000000,0.0000000,0.0000200,0.0000000,0.0000000,0.0000040,0.0000000,0.0000000,0.0000000,0.0000200,0.0000000,0.0000000,0.0000040
363.8976220,1.1997501,,-0.9990967,0.0424243,-0.0016675,0.0017955,0.0068315,0.0027180,-0.0037263,,,,0.2173516,4.8160677,-15.9049110,0.0000000,0.0000000,0.0000000,0.0239950,0.0002010,0.0000000,0.0000000,0.0000201,0.0000000,0.0000000,0.0000000,0.0002010,0.0000000,0.0000000,0.0000201,0.0000000,0.0000000,0.0000000,0.0002010,0.0000000,0.0000000,0.0000201,0.0000201,0.0000000,0.0000000,0.0000040,0.0000000,0.0000000,0.0000000,0.0000201,0.0000000,0.0000000,0.0000040,0.0000000,0.0000000,0.0000000,0.0000201,0.0000000,0.0000000,0.0000040
363.9189620,1.0504500,,-0.9990967,0.0424242,-0.0016738,0.0017838,0.0044991,0.0019846,-0.0086991,,,,0.2173516,4.8160677,-15.9049110,0.0000000,0.0000000,0.0000000,0.0210090,0.0002018,0.0000000,0.0000000,0.0000202,0.0000000,0.0000000,0.0000000,0.0002018,0.0000000,0.0000000,0.0000202,0.0000000,0.0000000,0.0000000,0.0002018,0.0000000,0.0000000,0.0000202,0.0000202,0.0000000,0.0000000,0.0000040,0.0000000,0.0000000,0.0000000,0.0000202,0.0000000,0.0000000,0.0000040,0.0000000,0.0000000,0.0000000,0.0000202,0.0000000,0.0000000,0.0000040
363.9389220,0.9996500,,-0.9990966,0.0424242,-0.0016936,0.0017915,0.0098942,-0.0029902,-0.0089882,,,,0.2173516,4.8160677,-15.9049110,0.0000000,0.0000000,0.0000000,0.0199930,0.0002026,0.0000000,0.0000000,0.0000202,0.0000000,0.0000000,0.0000000,0.0002026,0.0000000,0.0000000,0.0000202,0.0000000,0.0000000,0.0000000,0.0002026,0.0000000,0.0000000,0.0000202,0.0000202,0.0000000,0.0000000,0.0000040,0.0000000,0.0000000,0.0000000,0.0000202,0.0000000,0.0000000,0.0000040,0.0000000,0.0000000,0.0000000,0.0000202,0.0000000,0.0000000,0.0000040
363.9604580,,1.0099800,-0.9990966,0.0424242,-0.0017009,0.0018143,,,,0.0000000,0.0000000,0.0000000,0.2173516,4.8160677,-15.9049110,0.0000000,0.0000000,0.0000000,0.1009980,0.0001986,0.0000000,0.0000000,0.0000198,0.0000000,0.0000000,0.0000000,0.0001986,0.0000000,0.0000000,0.0000198,0.0000000,0.0000000,0.0000000,0.0001986,0.0000000,0.0000000,0.0000198,0.0000198,0.0000000,0.0000000,0.0000040,0.0000000,0.0000000,0.0000000,0.0000198,0.0000000,0.0000000,0.0000040,0.0000000,0.0000000,0.0000000,0.0000198,0.0000000,0.0000000,0.0000040
363.9738200,1.0000501,,-0.9990966,0.0424242,-0.0017009,0.0018143,0.0067400,-0.0054395,-0.0000996,,,,0.2173516,4.8160677,-15.9049110,0.0000000,0.0000000,0.0000000,0.0200010,0.0001994,0.0000000,0.0000000,0.0000199,0.0000000,0.0000000,0.0000000,0.0001994,0.0000000,0.0000000,0.0000199,0.0000000,0.0000000,0.0000000,0.0001994,0.0000000,0.0000000,0.0000199,0.0000199,0.0000000,0.0000000,0.0000040,0.0000000,0.0000000,0.0000000,0.0000199,0.0000000,0.0000000,0.0000040,0.0000000,0.0000000,0.0000000,0.0000199,0.0000000,0.0000000,0.0000040
363.9868030,1.3998500,,-0.9990966,0.0424243,-0.0016949,0.0018148,0.0005395,0.0001489,-0.0044443,,,,0.2173516,4.8160677,-15.9049110,0.0000000,0.0000000,0.0000000,0.0279970,0.0002005,0.0000000,0.0000000,0.0000200,0.0000000,0.0000000,0.0000000,0.0002005,0.0000000,0.0000000,0.0000200,0.0000000,0.0000000,0.0000000,0.0002005,0.0000000,0.0000000,0.0000200,0.0000200,0.0000000,0.0000000,0.0000040,0.0000000,0.0000000,0.0000000,0.0000200,0.0000000,0.0000000,0.0000040,0.0000000,0.0000000,0.0000000,0.0000200,0.0000000,0.0000000,0.0000040
364.0071510,1.0004500,,-0.9990966,0.0424243,-0.0016935,0.0018220,0.0028103,-0.0009555,-0.0029546,,,,0.2173516,4.8160677,-15.9049110,0.0000000,0.0000000,0.0000000,0.0200090,0.0002013,0.0000000,0.0000000,0.0000201,0.0000000,0.0000000,0.0000000,0.0002013,0.0000000,0.0000000,0.0000201,0.0000000,0.0000000,0.0000000,0.0002013,0.0000000,0.0000000,0.0000201,0.0000201,0.0000000,0.0000000,0.0000040,0.0000000,0.0000000,0.0000000,0.0000201,0.0000000,0.0000000,0.0000040,0.0000000,0.0000000,0.0000000,0.0000201,0.0000000,0.0000000,0.0000040
364.0269260,0.9999500,,-0.9990965,0.0424244,-0.0016932,0.0018521,0.0002836,-0.0036516,-0.0024539,,,,0.2173516,4.8160677,-15.9049110,0.0000000,0.0000000,0.0000000,0.0199990,0.0002021,0.0000000,0.0000000,0.0000202,0.0000000,0.0000000,0.0000000,0.0002021,0.0000000,0.0000000,0.0000202,0.0000000,0.0000000,0.0000000,0.0002021,0.0000000,0.0000000,0.0000202,0.0000202,0.0000000,0.0000000,0.0000040,0.0000000,0.0000000,0.0000000,0.0000202,0.0000000,0.0000000,0.0000040,0.0000000,0.0000000,0.0000000,0.0000202,0.0000000,0.0000000,0.0000040
364.0470360,0.9996500,,-0.9990965,0.0424244,-0.0016870,0.0018443,-0.0104859,-0.0018716,0.0051207,,,,0.2173516,4.8160677,-15.9049110,0.0000000,0.0000000,0.0000000,0.0199930,0.0002029,0.0000000,0.0000000,0.0000203,0.0000000,0.0000000,0.0000000,0.0002029,0.0000000,0.0000000,0.0000203,0.0000000,0.0000000,0.0000000,0.0002029,0.0000000,0.0000000,0.0000203,0.0000203,0.0000000,0.0000000,0.0000040,0.0000000,0.0000000,0.0000000,0.0000203,0.0000000,0.0000000,0.0000040,0.0000000,0.0000000,0.0000000,0.0000203,0.0000000,0.0000000,0.0000040
364.0629290,,0.9999800,-0.9990965,0.0424244,-0.0016870,0.0018306,,,,0.0000000,0.0000000,0.0000000,0.2173516,4.8160677,-15.9049110,0.0000000,0.0000000,0.0000000,0.0999980,0.0001989,0.0000000,0.0000000,0.0000199,0.0000000,0.0000000,0.0000000,0.0001989,0.0000000,0.0000000,0.0000199,0.0000000,0.0000000,0.0000000,0.0001989,0.0000000,0.0000000,0.0000199,0.0000199,0.0000000,0.0000000,0.0000040,0.0000000,0.0000000,0.0000000,0.0000199,0.0000000,0.0000000,0.0000040,0.0000000,0.0000000,0.0000000,0.0000199,0.0000000,0.0000000,0.0000040
364.0765830,1.0001000,,-0.9990965,0.0424243,-0.0017064,0.0018306,-0.0073716,-0.0024617,0.0001190,,,,0.2173516,4.8160677,-15.9049110,0.0000000,0.0000000,0.0000000,0.0200020,0.0001997,0.0000000,0.0000000,0.0000199,0.0000000,0.0000000,0.0000000,0.0001997,0.0000000,0.0000000,0.0000199,0.0000000,0.0000000,0.0000000,0.0001997,0.0000000,0.0000000,0.0000199,0.0000199,0.0000000,0.0000000,0.0000040,0.0000000,0.0000000,0.0000000,0.0000199,0.0000000,0.0000000,0.0000040,0.0000000,0.0000000,0.0000000,0.0000199,0.0000000,0.0000000,0.0000040
364.0897440,1.1498500,,-0.9990965,0.0424242,-0.0017292,0.0018066,-0.0029152,0.0038046,-0.0018936,,,,0.2173516,4.8160677,-15.9049110,0.0000000,0.0000000,0.0000000,0.0229970,0.0002006,0.0000000,0.0000000,0.0000200,0.0000000,0.0000000,0.0000000,0.0002006,0.0000000,0.0000000,0.0000200,0.0000000,0.0000000,0.0000000,0.0002006,0.0000000,0.0000000,0.0000200,0.0000200,0.0000000,0.0000000,0.0000040,0.0000000,0.0000000,0.0000000,0.0000200,0.0000000,0.0000000,0.0000040,0.0000000,0.0000000,0.0000000,0.0000200,0.0000000,0.0000000,0.0000040
364.1109760,1.0501001,,-0.9990966,0.0424243,-0.0016933,0.0017958,-0.0030369,0.0020472,0.0012504,,,,0.2173516,4.8160677,-15.9049110,0.0000000,0.0000000,0.0000000,0.0210020,0.0002014,0.0000000,0.0000000,0.0000201,0.0000000,0.0000000,0.0000000,0.0002014,0.0000000,0.0000000,0.0000201,0.0000000,0.0000000,0.0000000,0.0002014,0.0000000,0.0000000,0.0000201,0.0000201,0.0000000,0.0000000,0.0000040,0.0000000,0.0000000,0.0000000,0.0000201,0.0000000,0.0000000,0.0000040,0.0000000,0.0000000,0.0000000,0.0000201,0.0000000,0.0000000,0.0000040
364.1309620,1.0002999,,-0.9990968,0.0424243,-0.0016626,0.0017815,-0.0062410,0.0021299,0.0013576,,,,0.2173516,4.8160677,-15.9049110,0.0000000,0.0000000,0.0000000,0.0200060,0.0002022,0.0000000,0.0000000,0.0000202,0.0000000,0.0000000,0.0000000,0.0002022,0.0000000,0.0000000,0.0000202,0.0000000,0.0000000,0.0000000,0.0002022,0.0000000,0.0000000,0.0000202,0.0000202,0.0000000,0.0000000,0.0000040,0.0000000,0.0000000,0.0000000,0.0000202,0.0000000,0.0000000,0.0000040,0.0000000,0.0000000,0.0000000,0.0000202,0.0000000,0.0000000,0.0000040
364.1510310,1.0001000,,-0.9990968,0.0424244,-0.0016541,0.0017788,0.0004424,0.0026671,0.0018995,,,,0.2173516,4.8160677,-15.9049110,0.0000000,0.0000000,0.0000000,0.0200020,0.0002030,0.0000000,0.0000000,0.0000203,0.0000000,0.0000000,0.0000000,0.0002030,0.0000000,0.0000000,0.0000203,0.0000000,0.0000000,0.0000000,0.0002030,0.0000000,0.0000000,0.0000203,0.0000203,0.0000000,0.0000000,0.0000040,0.0000000,0.0000000,0.0000000,0.0000203,0.0000000,0.0000000,0.0000040,0.0000000,0.0000000,0.0000000,0.0000203,0.0000000,0.0000000,0.0000040
364.1667870,,1.0000000,-0.9990968,0.0424244,-0.0016541,0.0017788,,,,0.0000000,0.0000000,0.0000000,0.2173516,4.8160677,-15.9049110,0.0000000,0.0000000,0.0000000,0.1000000,0.0001990,0.0000000,0.0000000,0.0000199,0.0000000,0.0000000,0.0000000,0.0001990,0.0000000,0.0000000,0.0000199,0.0000000,0.0000000,0.0000000,0.0001990,0.0000000,0.0000000,0.0000199,0.0000199,0.0000000,0.0000000,0.0000040,0.0000000,0.0000000,0.0000000,0.0000199,0.0000000,0.0000000,0.0000040,0.0000000,0.0000000,0.0000000,0.0000199,0.0000000,0.0000000,0.0000040
364.1804460,1.0001000,,-0.9990968,0.0424243,-0.0016472,0.0017559,-0.0003663,0.0050948,-0.0000268,,,,0.2173516,4.8160677,-15.9049110,0.0000000,0.0000000,0.0000000,0.0200020,0.0001998,0.0000000,0.0000000,0.0000200,0.0000000,0.0000000,0.0000000,0.0001998,0.0000000,0.0000000,0.0000200,0.0000000,0.0000000,0.0000000,0.0001998,0.0000000,0.0000000,0.0000200,0.0000200,0.0000000,0.0000000,0.0000040,0.0000000,0.0000000,0.0000000,0.0000200,0.0000000,0.0000000,0.0000040,0.0000000,0.0000000,0.0000000,0.0000200,0.0000000,0.0000000,0.0000040
364.1938400,1.1494499,,-0.9990968,0.0424243,-0.0016522,0.0017409,0.0050735,0.0026390,-0.0029431,,,,0.2173516,4.8160677,-15.9049110,0.0000000,0.0000000,0.0000000,0.0229890,0.0002007,0.0000000,0.0000000,0.0000201,0.0000000,0.0000000,0.0000000,0.0002007,0.0000000,0.0000000,0.0000201,0.0000000,0.0000000,0.0000000,0.0002007,0.0000000,0.0000000,0.0000201,0.0000201,0.0000000,0.0000000,0.0000040,0.0000000,0.0000000,0.0000000,0.0000201,0.0000000,0.0000000,0.0000040,0.0000000,0.0000000,0.0000000,0.0000201,0.0000000,0.0000000,0.0000040
364.2139150,1.0000000,,-0.9990968,0.0424243,-0.0016580,0.0017456,0.0029030,-0.0002751,0.0068292,,,,0.2173516,4.8160677,-15.9049110,0.0000000,0.0000000,0.0000000,0.0200000,0.0002015,0.0000000,0.0000000,0.0000201,0.0000000,0.0000000,0.0000000,0.0002015,0.0000000,0.0000000,0.0000201,0.0000000,0.0000000,0.0000000,0.0002015,0.0000000,0.0000000,0.0000201,0.0000201,0.0000000,0.0000000,0.0000040,0.0000000,0.0000000,0.0000000,0.0000201,0.0000000,0.0000000,0.0000040,0.0000000,0.0000000,0.0000000,0.0000201,0.0000000,0.0000000,0.0000040
364.2349340,1.0503500,,-0.9990968,0.0424244,-0.0016648,0.0017629,0.0042591,-0.0012133,0.0014615,,,,0.2173516,4.8160677,-15.9049110,0.0000000,0.0000000,0.0000000,0.0210070,0.0002024,0.0000000,0.0000000,0.0000202,0.0000000,0.0000000,0.0000000,0.0002024,0.0000000,0.0000000,0.0000202,0.0000000,0.0000000,0.0000000,0.0002024,0.0000000,0.0000000,0.0000202,0.0000202,0.0000000,0.0000000,0.0000040,0.0000000,0.0000000,0.0000000,0.0000202,0.0000000,0.0000000,0.0000040,0.0000000,0.0000000,0.0000000,0.0000202,0.0000000,0.0000000,0.0000040
364.2547620,1.0000501,,-0.9990968,0.0424243,-0.0016742,0.0017576,0.0027246,0.0004844,-0.0007341,,,,0.2173516,4.8160677,-15.9049110,0.0000000,0.0000000,0.0000000,0.0200010,0.0002032,0.0000000,0.0000000,0.0000203,0.0000000,0.0000000,0.0000000,0.0002032,0.0000000,0.0000000,0.0000203,0.0000000,0.0000000,0.0000000,0.0002032,0.0000000,0.0000000,0.0000203,0.0000203,0.0000000,0.0000000,0.0000040,0.0000000,0.0000000,0.0000000,0.0000203,0.0000000,0.0000000,0.0000040,0.0000000,0.0000000,0.0000000,0.0000203,0.0000000,0.0000000,0.0000040
364.2707090,,1.0000199,-0.9990968,0.0424243,-0.0016742,0.0017576,,,,0.0000000,0.0000000,0.0000000,0.2173516,4.8160677,-15.9049110,0.0000000,0.0000000,0.0000000,0.1000020,0.0001991,0.0000000,0.0000000,0.0000199,0.0000000,0.0000000,0.0000000,0.0001991,0.0000000,0.0000000,0.0000199,0.0000000,0.0000000,0.0000000,0.0001991,0.0000000,0.0000000,0.0000199,0.0000199,0.0000000,0.0000000,0.0000040,0.0000000,0.0000000,0.0000000,0.0000199,0.0000000,0.0000000,0.0000040,0.0000000,0.0000000,0.0000000,0.0000199,0.0000000,0.0000000,0.0000040
364.2843980,0.9997000,,-0.9990968,0.0424244,-0.0016808,0.0017621,0.0017056,0.0013484,-0.0001229,,,,0.2173516,4.8160677,-15.9049110,0.0000000,0.0000000,0.0000000,0.0199940,0.0001999,0.0000000,0.0000000,0.0000200,0.0000000,0.0000000,0.0000000,0.0001999,0.0000000,0.0000000,0.0000200,0.0000000,0.0000000,0.0000000,0.0001999,0.0000000,0.0000000,0.0000200,0.0000200,0.0000000,0.0000000,0.0000040,0.0000000,0.0000000,0.0000000,0.0000200,0.0000000,0.0000000,0.0000040,0.0000000,0.0000000,0.0000000,0.0000200,0.0000000,0.0000000,0.0000040
364.2977650,1.1499000,,-0.9990967,0.0424243,-0.0017001,0.0017693,0.0009215,0.0027723,0.0001827,,,,0.2173516,4.8160677,-15.9049110,0.0000000,0.0000000,0.0000000,0.0229980,0.0002008,0.0000000,0.0000000,0.0000201,0.0000000,0.0000000,0.0000000,0.0002008,0.0000000,0.0000000,0.0000201,0.0000000,0.0000000,0.0000000,0.0002008,0.0000000,0.0000000,0.0000201,0.0000201,0.0000000,0.0000000,0.0000040,0.0000000,0.0000000,0.0000000,0.0000201,0.0000000,0.0000000,0.0000040,0.0000000,0.0000000,0.0000000,0.0000201,0.0000000,0.0000000,0.0000040
364.3181640,0.9999500,,-0.9990966,0.0424244,-0.0017065,0.0017804,0.0012695,0.0015464,-0.0006411,,,,0.2173516,4.8160677,-15.9049110,0.0000000,0.0000000,0.0000000,0.0199990,0.0002016,0.0000000,0.0000000,0.0000201,0.0000000,0.0000000,0.0000000,0.0002016,0.0000000,0.0000000,0.0000201,0.0000000,0.0000000,0.0000000,0.0002016,0.0000000,0.0000000,0.0000201,0.0000201,0.0000000,0.0000000,0.0000040,0.0000000,0.0000000,0.0000000,0.0000201,0.0000000,0.0000000,0.0000040,0.0000000,0.0000000,0.0000000,0.0000201,0.0000000,0.0000000,0.0000040
364.3379090,1.0001501,,-0.9990966,0.0424244,-0.0017145,0.0017845,0.0014358,-0.0002949,0.0023650,,,,0.2173516,4.8160677,-15.9049110,0.0000000,0.0000000,0.0000000,0.0200030,0.0002025,0.0000000,0.0000000,0.0000202,0.0000000,0.0000000,0.0000000,0.0002025,0.0000000,0.0000000,0.0000202,0.0000000,0.0000000,0.0000000,0.0002025,0.0000000,0.0000000,0.0000202,0.0000202,0.0000000,0.0000000,0.0000040,0.0000000,0.0000000,0.0000000,0.0000202,0.0000000,0.0000000,0.0000040,0.0000000,0.0000000,0.0000000,0.0000202,0.0000000,0.0000000,0.0000040
364.3589410,,1.0000000,-0.9990965,0.0424243,-0.0017468,0.0017917,,,,0.0000000,0.0000000,0.0000000,0.2173516,4.8160677,-15.9049110,0.0000000,0.0000000,0.0000000,0.1000000,0.0001984,0.0000000,0.0000000,0.0000198,0.0000000,0.0000000,0.0000000,0.0001984,0.0000000,0.0000000,0.0000198,0.0000000,0.0000000,0.0000000,0.0001984,0.0000000,0.0000000,0.0000198,0.0000198,0.0000000,0.0000000,0.0000040,0.0000000,0.0000000,0.0000000,0.0000198,0.0000000,0.0000000,0.0000040,0.0000000,0.0000000,0.0000000,0.0000198,0.0000000,0.0000000,0.0000040
364.3725980,1.0000000,,-0.9990965,0.0424243,-0.0017468,0.0017917,0.0051277,-0.0033976,0.0060653,,,,0.2173516,4.8160677,-15.9049110,0.0000000,0.0000000,0.0000000,0.0200000,0.0001992,0.0000000,0.0000000,0.0000199,0.0000000,0.0000000,0.0000000,0.0001992,0.0000000,0.0000000,0.0000199,0.0000000,0.0000000,0.0000000,0.0001992,0.0000000,0.0000000,0.0000199,0.0000199,0.0000000,0.0000000,0.0000040,0.0000000,0.0000000,0.0000000,0.0000199,0.0000000,0.0000000,0.0000040,0.0000000,0.0000000,0.0000000,0.0000199,0.0000000,0.0000000,0.0000040
364.3858290,1.4002501,,-0.9990965,0.0424243,-0.0017637,0.0017832,0.0091633,-0.0003331,-0.0016060,,,,0.2173516,4.8160677,-15.9049110,0.0000000,0.0000000,0.0000000,0.0280050,0.0002003,0.0000000,0.0000000,0.0000200,0.0000000,0.0000000,0.0000000,0.0002003,0.0000000,0.0000000,0.0000200,0.0000000,0.0000000,0.0000000,0.0002003,0.0000000,0.0000000,0.0000200,0.0000200,0.0000000,0.0000000,0.0000040,0.0000000,0.0000000,0.0000000,0.0000200,0.0000000,0.0000000,0.0000040,0.0000000,0.0000000,0.0000000,0.0000200,0.0000000,0.0000000,0.0000040
364.4059220,1.0001000,,-0.9990965,0.0424243,-0.0017618,0.0017836,0.0065653,-0.0034319,-0.0020237,,,,0.2173516,4.8160677,-15.9049110,0.0000000,0.0000000,0.0000000,0.0200020,0.0002011,0.0000000,0.0000000,0.0000201,0.0000000,0.0000000,0.0000000,0.0002011,0.0000000,0.0000000,0.0000201,0.0000000,0.0000000,0.0000000,0.0002011,0.0000000,0.0000000,0.0000201,0.0000201,0.0000000,0.0000000,0.0000040,0.0000000,0.0000000,0.0000000,0.0000201,0.0000000,0.0000000,0.0000040,0.0000000,0.0000000,0.0000000,0.0000201,0.0000000,0.0000000,0.0000040
364.4260080,0.9998000,,-0.9990965,0.0424244,-0.0017447,0.0017953,0.0001698,-0.0030053,0.0070448,,,,0.2173516,4.8160677,-15.9049110,0.0000000,0.0000000,0.0000000,0.0199960,0.0002019,0.0000000,0.0000000,0.0000202,0.0000000,0.0000000,0.0000000,0.0002019,0.0000000,0.0000000,0.0000202,0.0000000,0.0000000,0.0000000,0.0002019,0.0000000,0.0000000,0.0000202,0.0000202,0.0000000,0.0000000,0.0000040,0.0000000,0.0000000,0.0000000,0.0000202,0.0000000,0.0000000,0.0000040,0.0000000,0.0000000,0.0000000,0.0000202,0.0000000,0.0000000,0.0000040
364.4455900,0.9998000,,-0.9990964,0.0424254,-0.0017383,0.0018307,0.0001460,-0.0015179,0.0013251,,,,0.2173516,4.8160677,-15.9049110,0.0000000,0.0000000,0.0000000,0.0199960,0.0002028,0.0000000,0.0000000,0.0000203,0.0000000,0.0000000,0.0000000,0.0002028,0.0000000,0.0000000,0.0000203,0.0000000,0.0000000,0.0000000,0.0002028,0.0000000,0.0000000,0.0000203,0.0000203,0.0000000,0.0000000,0.0000040,0.0000000,0.0000000,0.0000000,0.0000203,0.0000000,0.0000000,0.0000040,0.0000000,0.0000000,0.0000000,0.0000203,0.0000000,0.0000000,0.0000040
364.4622590,,1.0000199,-0.9990964,0.0424254,-0.0017383,0.0018307,,,,0.0000000,0.0000000,0.0000000,0.2173516,4.8160677,-15.9049110,0.0000000,0.0000000,0.0000000,0.1000020,0.0001987,0.0000000,0.0000000,0.0000199,0.0000000,0.0000000,0.0000000,0.0001987,0.0000000,0.0000000,0.0000199,0.0000000,0.0000000,0.0000000,0.0001987,0.0000000,0.0000000,0.0000199,0.0000199,0.0000000,0.0000000,0.0000040,0.0000000,0.0000000,0.0000000,0.0000199,0.0000000,0.0000000,0.0000040,0.0000000,0.0000000,0.0000000,0.0000199,0.0000000,0.0000000,0.0000040
364.4757880,1.1003500,,-0.9990964,0.0424260,-0.0017190,0.0018387,-0.0066714,-0.0046957,0.0013950,,,,0.2173516,4.8160677,-15.9049110,0.0000000,0.0000000,0.0000000,0.0220070,0.0001996,0.0000000,0.0000000,0.0000199,0.0000000,0.0000000,0.0000000,0.0001996,0.0000000,0.0000000,0.0000199,0.0000000,0.0000000,0.0000000,0.0001996,0.0000000,0.0000000,0.0000199,0.0000199,0.0000000,0.0000000,0.0000040,0.0000000,0.0000000,0.0000000,0.0000199,0.0000000,0.0000000,0.0000040,0.0000000,0.0000000,0.0000000,0.0000199,0.0000000,0.0000000,0.0000040
364.4890030,1.0495499,,-0.9990965,0.0424263,-0.0016981,0.0018239,-0.0056627,0.0049077,-0.0027205,,,,0.2173516,4.8160677,-15.9049110,0.0000000,0.0000000,0.0000000,0.0209910,0.0002004,0.0000000,0.0000000,0.0000200,0.0000000,0.0000000,0.0000000,0.0002004,0.0000000,0.0000000,0.0000200,0.0000000,0.0000000,0.0000000,0.0002004,0.0000000,0.0000000,0.0000200,0.0000200,0.0000000,0.0000000,0.0000040,0.0000000,0.0000000,0.0000000,0.0000200,0.0000000,0.0000000,0.0000040,0.0000000,0.0000000,0.0000000,0.0000200,0.0000000,0.0000000,0.0000040
364.5086940,1.0005001,,-0.9990965,0.0424265,-0.0016713,0.0018261,-0.0039071,0.0053301,-0.0033134,,,,0.2173516,4.8160677,-15.9049110,0.0000000,0.0000000,0.0000000,0.0200100,0.0002012,0.0000000,0.0000000,0.0000201,0.0000000,0.0000000,0.0000000,0.0002012,0.0000000,0.0000000,0.0000201,0.0000000,0.0000000,0.0000000,0.0002012,0.0000000,0.0000000,0.0000201,0.0000201,0.0000000,0.0000000,0.0000040,0.0000000,0.0000000,0.0000000,0.0000201,0.0000000,0.0000000,0.0000040,0.0000000,0.0000000,0.0000000,0.0000201,0.0000000,0.0000000,0.0000040
364.5296780,1.0495499,,-0.9990965,0.0424265,-0.0016764,0.0018367,0.0037761,0.0045877,-0.0048305,,,,0.2173516,4.8160677,-15.9049110,0.0000000,0.0000000,0.0000000,0.0209910,0.0002021,0.0000000,0.0000000,0.0000202,0.0000000,0.0000000,0.0000000,0.0002021,0.0000000,0.0000000,0.0000202,0.0000000,0.0000000,0.0000000,0.0002021,0.0000000,0.0000000,0.0000202,0.0000202,0.0000000,0.0000000,0.0000040,0.0000000,0.0000000,0.0000000,0.0000202,0.0000000,0.0000000,0.0000040,0.0000000,0.0000000,0.0000000,0.0000202,0.0000000,0.0000000,0.0000040
364.5510010,1.0500000,,-0.9990965,0.0424266,-0.0016855,0.0018322,0.0071142,-0.0019100,-0.0033918,,,,0.2173516,4.8160677,-15.9049110,0.0000000,0.0000000,0.0000000,0.0210000,0.0002029,0.0000000,0.0000000,0.0000203,0.0000000,0.0000000,0.0000000,0.0002029,0.0000000,0.0000000,0.0000203,0.0000000,0.0000000,0.0000000,0.0002029,0.0000000,0.0000000,0.0000203,0.0000203,0.0000000,0.0000000,0.0000040,0.0000000,0.0000000,0.0000000,0.0000203,0.0000000,0.0000000,0.0000040,0.0000000,0.0000000,0.0000000,0.0000203,0.0000000,0.0000000,0.0000040
364.5669950,,0.9999800,-0.9990965,0.0424266,-0.0016855,0.0018322,,,,0.0000000,0.0000000,0.0000000,0.2173516,4.8160677,-15.9049110,0.0000000,0.0000000,0.0000000,0.0999980,0.0001989,0.0000000,0.0000000,0.0000199,0.0000000,0.0000000,0.0000000,0.0001989,0.0000000,0.0000000,0.0000199,0.0000000,0.0000000,0.0000000,0.0001989,0.0000000,0.0000000,0.0000199,0.0000199,0.0000000,0.0000000,0.0000040,0.0000000,0.0000000,0.0000000,0.0000199,0.0000000,0.0000000,0.0000040,0.0000000,0.0000000,0.0000000,0.0000199,0.0000000,0.0000000,0.0000040
364.5809660,1.0001501,,-0.9990965,0.0424266,-0.0016924,0.0018352,0.0102405,-0.0048994,-0.0007193,,,,0.2173516,4.8160677,-15.9049110,0.0000000,0.0000000,0.0000000,0.0200030,0.0001997,0.0000000,0.0000000,0.0000199,0.0000000,0.0000000,0.0000000,0.0001997,0.0000000,0.0000000,0.0000199,0.0000000,0.0000000,0.0000000,0.0001997,0.0000000,0.0000000,0.0000199,0.0000199,0.0000000,0.0000000,0.0000040,0.0000000,0.0000000,0.0000000,0.0000199,0.0000000,0.0000000,0.0000040,0.0000000,0.0000000,0.0000000,0.0000199,0.0000000,0.0000000,0.0000040
364.5937340,1.1497999,,-0.9990965,0.0424266,-0.0016759,0.0018406,0.0035409,-0.0039527,0.0028142,,,,0.2173516,4.8160677,-15.9049110,0.0000000,0.0000000,0.0000000,0.0229960,0.0002006,0.0000000,0.0000000,0.0000200,0.0000000,0.0000000,0.0000000,0.0002006,0.0000000,0.0000000,0.0000200,0.0000000,0.0000000,0.0000000,0.0002006,0.0000000,0.0000000,0.0000200,0.0000200,0.0000000,0.0000000,0.0000040,0.0000000,0.0000000,0.0000000,0.0000200,0.0000000,0.0000000,0.0000040,0.0000000,0.0000000,0.0000000,0.0000200,0.0000000,0.0000000,0.0000040
364.6146620,1.0500500,,-0.9990965,0.0424267,-0.0016814,0.0018511,0.0026097,0.0019147,-0.0051847,,,,0.2173516,4.8160677,-15.9049110,0.0000000,0.0000000,0.0000000,0.0210010,0.0002014,0.0000000,0.0000000,0.0000201,0.0000000,0.0000000,0.0000000,0.0002014,0.0000000,0.0000000,0.0000201,0.0000000,0.0000000,0.0000000,0.0002014,0.0000000,0.0000000,0.0000201,0.0000201,0.0000000,0.0000000,0.0000040,0.0000000,0.0000000,0.0000000,0.0000201,0.0000000,0.0000000,0.0000040,0.0000000,0.0000000,0.0000000,0.0000201,0.0000000,0.0000000,0.0000040
364.6359430,1.0501500,,-0.9990965,0.0424267,-0.0016904,0.0018523,0.0018847,0.0011786,0.0018022,,,,0.2173516,4.8160677,-15.9049110,0.0000000,0.0000000,0.0000000,0.0210030,0.0002023,0.0000000,0.0000000,0.0000202,0.0000000,0.0000000,0.0000000,0.0002023,0.0000000,0.0000000,0.0000202,0.0000000,0.0000000,0.0000000,0.0002023,0.0000000,0.0000000,0.0000202,0.0000202,0.0000000,0.0000000,0.0000040,0.0000000,0.0000000,0.0000000,0.0000202,0.0000000,0.0000000,0.0000040,0.0000000,0.0000000,0.0000000,0.0000202,0.0000000,0.0000000,0.0000040
364.6560190,1.0002000,,-0.9990964,0.0424267,-0.0016997,0.0018659,-0.0050772,-0.0033170,0.0062722,,,,0.2173516,4.8160677,-15.9049110,0.0000000,0.0000000,0.0000000,0.0200040,0.0002031,0.0000000,0.0000000,0.0000203,0.0000000,0.0000000,0.0000000,0.0002031,0.0000000,0.0000000,0.0000203,0.0000000,0.0000000,0.0000000,0.0002031,0.0000000,0.0000000,0.0000203,0.0000203,0.0000000,0.0000000,0.0000040,0.0000000,0.0000000,0.0000000,0.0000203,0.0000000,0.0000000,0.0000040,0.0000000,0.0000000,0.0000000,0.0000203,0.0000000,0.0000000,0.0000040
364.6718670,,1.0000700,-0.9990964,0.0424267,-0.0016997,0.0018712,,,,0.0000000,0.0000000,0.0000000,0.2173516,4.8160677,-15.9049110,0.0000000,0.0000000,0.0000000,0.1000070,0.0001991,0.0000000,0.0000000,0.0000199,0.0000000,0.0000000,0.0000000,0.0001991,0.0000000,0.0000000,0.0000199,0.0000000,0.0000000,0.0000000,0.0001991,0.0000000,0.0000000,0.0000199,0.0000199,0.0000000,0.0000000,0.0000040,0.0000000,0.0000000,0.0000000,0.0000199,0.0000000,0.0000000,0.0000040,0.0000000,0.0000000,0.0000000,0.0000199,0.0000000,0.0000000,0.0000040
364.6856150,1.0001000,,-0.9990964,0.0424267,-0.0016993,0.0018712,-0.0063533,-0.0016585,-0.0046764,,,,0.2173516,4.8160677,-15.9049110,0.0000000,0.0000000,0.0000000,0.0200020,0.0001999,0.0000000,0.0000000,0.0000200,0.0000000,0.0000000,0.0000000,0.0001999,0.0000000,0.0000000,0.0000200,0.0000000,0.0000000,0.0000000,0.0001999,0.0000000,0.0000000,0.0000200,0.0000200,0.0000000,0.0000000,0.0000040,0.0000000,0.0000000,0.0000000,0.0000200,0.0000000,0.0000000,0.0000040,0.0000000,0.0000000,0.0000000,0.0000200,0.0000000,0.0000000,0.0000040
364.6987590,1.1495000,,-0.9990963,0.0424267,-0.0017304,0.0018850,-0.0053434,0.0004144,0.0044977,,,,0.2173516,4.8160677,-15.9049110,0.0000000,0.0000000,0.0000000,0.0229900,0.0002008,0.0000000,0.0000000,0.0000201,0.0000000,0.0000000,0.0000000,0.0002008,0.0000000,0.0000000,0.0000201,0.0000000,0.0000000,0.0000000,0.0002008,0.0000000,0.0000000,0.0000201,0.0000201,0.0000000,0.0000000,0.0000040,0.0000000,0.0000000,0.0000000,0.0000201,0.0000000,0.0000000,0.0000040,0.0000000,0.0000000,0.0000000,0.0000201,0.0000000,0.0000000,0.0000040
364.7201660,1.0500000,,-0.9990963,0.0424266,-0.0017526,0.0018896,-0.0004516,-0.0029514,0.0042020,,,,0.2173516,4.8160677,-15.9049110,0.0000000,0.0000000,0.0000000,0.0210000,0.0002016,0.0000000,0.0000000,0.0000201,0.0000000,0.0000000,0.0000000,0.0002016,0.0000000,0.0000000,0.0000201,0.0000000,0.0000000,0.0000000,0.0002016,0.0000000,0.0000000,0.0000201,0.0000201,0.0000000,0.0000000,0.0000040,0.0000000,0.0000000,0.0000000,0.0000201,0.0000000,0.0000000,0.0000040,0.0000000,0.0000000,0.0000000,0.0000201,0.0000000,0.0000000,0.0000040
364.7401090,1.0000501,,-0.9990962,0.0424266,-0.0017805,0.0018955,-0.0017059,0.0024611,0.0003920,,,,0.2173516,4.8160677,-15.9049110,0.0000000,0.0000000,0.0000000,0.0200010,0.0002024,0.0000000,0.0000000,0.0000202,0.0000000,0.0000000,0.0000000,0.0002024,0.0000000,0.0000000,0.0000202,0.0000000,0.0000000,0.0000000,0.0002024,0.0000000,0.0000000,0.0000202,0.0000202,0.0000000,0.0000000,0.0000040,0.0000000,0.0000000,0.0000000,0.0000202,0.0000000,0.0000000,0.0000040,0.0000000,0.0000000,0.0000000,0.0000202,0.0000000,0.0000000,0.0000040
364.7603070,,0.9999300,-0.9990962,0.0424266,-0.0017805,0.0018876,,,,0.0000000,0.0000000,0.0000000,0.2173516,4.8160677,-15.9049110,0.0000000,0.0000000,0.0000000,0.0999930,0.0001984,0.0000000,0.0000000,0.0000198,0.0000000,0.0000000,0.0000000,0.0001984,0.0000000,0.0000000,0.0000198,0.0000000,0.0000000,0.0000000,0.0001984,0.0000000,0.0000000,0.0000198,0.0000198,0.0000000,0.0000000,0.0000040,0.0000000,0.0000000,0.0000000,0.0000198,0.0000000,0.0000000,0.0000040,0.0000000,0.0000000,0.0000000,0.0000198,0.0000000,0.0000000,0.0000040
364.7737410,1.1008000,,-0.9990962,0.0424266,-0.0017994,0.0018876,0.0025421,0.0027030,0.0014167,,,,0.2173516,4.8160677,-15.9049110,0.0000000,0.0000000,0.0000000,0.0220160,0.0001993,0.0000000,0.0000000,0.0000199,0.0000000,0.0000000,0.0000000,0.0001993,0.0000000,0.0000000,0.0000199,0.0000000,0.0000000,0.0000000,0.0001993,0.0000000,0.0000000,0.0000199,0.0000199,0.0000000,0.0000000,0.0000040,0.0000000,0.0000000,0.0000000,0.0000199,0.0000000,0.0000000,0.0000040,0.0000000,0.0000000,0.0000000,0.0000199,0.0000000,0.0000000,0.0000040
364.7868040,1.2491500,,-0.9990961,0.0424265,-0.0018352,0.0018864,-0.0007583,0.0038082,0.0092533,,,,0.2173516,4.8160677,-15.9049110,0.0000000,0.0000000,0.0000000,0.0249830,0.0002003,0.0000000,0.0000000,0.0000200,0.0000000,0.0000000,0.0000000,0.0002003,0.0000000,0.0000000,0.0000200,0.0000000,0.0000000,0.0000000,0.0002003,0.0000000,0.0000000,0.0000200,0.0000200,0.0000000,0.0000000,0.0000040,0.0000000,0.0000000,0.0000000,0.0000200,0.0000000,0.0000000,0.0000040,0.0000000,0.0000000,0.0000000,0.0000200,0.0000000,0.0000000,0.0000040
364.8071650,1.0003500,,-0.9990960,0.0424265,-0.0018661,0.0018915,0.0000099,0.0046125,0.0007204,,,,0.2173516,4.8160677,-15.9049110,0.0000000,0.0000000,0.0000000,0.0200070,0.0002011,0.0000000,0.0000000,0.0000201,0.0000000,0.0000000,0.0000000,0.0002011,0.0000000,0.0000000,0.0000201,0.0000000,0.0000000,0.0000000,0.0002011,0.0000000,0.0000000,0.0000201,0.0000201,0.0000000,0.0000000,0.0000040,0.0000000,0.0000000,0.0000000,0.0000201,0.0000000,0.0000000,0.0000040,0.0000000,0.0000000,0.0000000,0.0000201,0.0000000,0.0000000,0.0000040
364.8269170,1.0000501,,-0.9990960,0.0424265,-0.0018794,0.0019078,-0.0010708,0.0038245,0.0020692,,,,0.2173516,4.8160677,-15.9049110,0.0000000,0.0000000,0.0000000,0.0200010,0.0002019,0.0000000,0.0000000,0.0000202,0.0000000,0.0000000,0.0000000,0.0002019,0.0000000,0.0000000,0.0000202,0.0000000,0.0000000,0.0000000,0.0002019,0.0000000,0.0000000,0.0000202,0.0000202,0.0000000,0.0000000,0.0000040,0.0000000,0.0000000,0.0000000,0.0000202,0.0000000,0.0000000,0.0000040,0.0000000,0.0000000,0.0000000,0.0000202,0.0000000,0.0000000,0.0000040
364.8467550,1.0003500,,-0.9990959,0.0424265,-0.0018968,0.0019333,-0.0055326,-0.0023907,-0.0001861,,,,0.2173516,4.8160677,-15.9049110,0.0000000,0.0000000,0.0000000,0.0200070,0.0002027,0.0000000,0.0000000,0.0000202,0.0000000,0.0000000,0.0000000,0.0002027,0.0000000,0.0000000,0.0000202,0.0000000,0.0000000,0.0000000,0.0002027,0.0000000,0.0000000,0.0000202,0.0000202,0.0000000,0.0000000,0.0000040,0.0000000,0.0000000,0.0000000,0.0000202,0.0000000,0.0000000,0.0000040,0.0000000,0.0000000,0.0000000,0.0000202,0.0000000,0.0000000,0.0000040
364.8626780,,1.0000000,-0.9990959,0.0424265,-0.0018968,0.0019333,,,,0.0000000,0.0000000,0.0000000,0.2173516,4.8160677,-15.9049110,0.0000000,0.0000000,0.0000000,0.1000000,0.0001987,0.0000000,0.0000000,0.0000198,0.0000000,0.0000000,0.0000000,0.0001987,0.0000000,0.0000000,0.0000198,0.0000000,0.0000000,0.0000000,0.0001987,0.0000000,0.0000000,0.0000198,0.0000198,0.0000000,0.0000000,0.0000040,0.0000000,0.0000000,0.0000000,0.0000198,0.0000000,0.0000000,0.0000040,0.0000000,0.0000000,0.0000000,0.0000198,0.0000000,0.0000000,0.0000040
364.8765210,0.9998000,,-0.9990959,0.0424266,-0.0018900,0.0019563,-0.0028502,-0.0045065,0.0045456,,,,0.2173516,4.8160677,-15.9049110,0.0000000,0.0000000,0.0000000,0.0199960,0.0001995,0.0000000,0.0000000,0.0000199,0.0000000,0.0000000,0.0000000,0.0001995,0.0000000,0.0000000,0.0000199,0.0000000,0.0000000,0.0000000,0.0001995,0.0000000,0.0000000,0.0000199,0.0000199,0.0000000,0.0000000,0.0000040,0.0000000,0.0000000,0.0000000,0.0000199,0.0000000,0.0000000,0.0000040,0.0000000,0.0000000,0.0000000,0.0000199,0.0000000,0.0000000,0.0000040
364.8897130,1.1494499,,-0.9990959,0.0424266,-0.0018956,0.0019613,0.0011536,-0.0016658,0.0015404,,,,0.2173516,4.8160677,-15.9049110,0.0000000,0.0000000,0.0000000,0.0229890,0.0002004,0.0000000,0.0000000,0.0000200,0.0000000,0.0000000,0.0000000,0.0002004,0.0000000,0.0000000,0.0000200,0.0000000,0.0000000,0.0000000,0.0002004,0.0000000,0.0000000,0.0000200,0.0000200,0.0000000,0.0000000,0.0000040,0.0000000,0.0000000,0.0000000,0.0000200,0.0000000,0.0000000,0.0000040,0.0000000,0.0000000,0.0000000,0.0000200,0.0000000,0.0000000,0.0000040
364.9097140,1.0000000,,-0.9990959,0.0424266,-0.0019066,0.0019657,0.0055817,-0.0004896,0.0080944,,,,0.2173516,4.8160677,-15.9049110,0.0000000,0.0000000,0.0000000,0.0200000,0.0002012,0.0000000,0.0000000,0.0000201,0.0000000,0.0000000,0.0000000,0.0002012,0.0000000,0.0000000,0.0000201,0.0000000,0.0000000,0.0000000,0.0002012,0.0000000,0.0000000,0.0000201,0.0000201,0.0000000,0.0000000,0.0000040,0.0000000,0.0000000,0.0000000,0.0000201,0.0000000,0.0000000,0.0000040,0.0000000,0.0000000,0.0000000,0.0000201,0.0000000,0.0000000,0.0000040
364.9312370,1.0000000,,-0.9990958,0.0424266,-0.0019107,0.0019818,0.0038971,0.0001291,0.0025747,,,,0.2173516,4.8160677,-15.9049110,0.0000000,0.0000000,0.0000000,0.0200000,0.0002020,0.0000000,0.0000000,0.0000202,0.0000000,0.0000000,0.0000000,0.0002020,0.0000000,0.0000000,0.0000202,0.0000000,0.0000000,0.0000000,0.0002020,0.0000000,0.0000000,0.0000202,0.0000202,0.0000000,0.0000000,0.0000040,0.0000000,0.0000000,0.0000000,0.0000202,0.0000000,0.0000000,0.0000040,0.0000000,0.0000000,0.0000000,0.0000202,0.0000000,0.0000000,0.0000040
364.9500620,1.0000000,,-0.9990958,0.0424266,-0.0019080,0.0019768,0.0047714,0.0040700,-0.0033513,,,,0.2173516,4.8160677,-15.9049110,0.0000000,0.0000000,0.0000000,0.0200000,0.0002028,0.0000000,0.0000000,0.0000203,0.0000000,0.0000000,0.0000000,0.0002028,0.0000000,0.0000000,0.0000203,0.0000000,0.0000000,0.0000000,0.0002028,0.0000000,0.0000000,0.0000203,0.0000203,0.0000000,0.0000000,0.0000040,0.0000000,0.0000000,0.0000000,0.0000203,0.0000000,0.0000000,0.0000040,0.0000000,0.0000000,0.0000000,0.0000203,0.0000000,0.0000000,0.0000040
364.9649600,,1.0000100,-0.9990958,0.0424266,-0.0019080,0.0019768,,,,0.0000000,0.0000000,0.0000000,0.2173516,4.8160677,-15.9049110,0.0000000,0.0000000,0.0000000,0.1000010,0.0001987,0.0000000,0.0000000,0.0000199,0.0000000,0.0000000,0.0000000,0.0001987,0.0000000,0.0000000,0.0000199,0.0000000,0.0000000,0.0000000,0.0001987,0.0000000,0.0000000,0.0000199,0.0000199,0.0000000,0.0000000,0.0000040,0.0000000,0.0000000,0.0000000,0.0000199,0.0000000,0.0000000,0.0000040,0.0000000,0.0000000,0.0000000,0.0000199,0.0000000,0.0000000,0.0000040
364.9787780,1.1003500,,-0.9990958,0.0424266,-0.0019071,0.0019866,0.0086266,0.0004557,-0.0016757,,,,0.2173516,4.8160677,-15.9049110,0.0000000,0.0000000,0.0000000,0.0220070,0.0001996,0.0000000,0.0000000,0.0000199,0.0000000,0.0000000,0.0000000,0.0001996,0.0000000,0.0000000,0.0000199,0.0000000,0.0000000,0.0000000,0.0001996,0.0000000,0.0000000,0.0000199,0.0000199,0.0000000,0.0000000,0.0000040,0.0000000,0.0000000,0.0000000,0.0000199,0.0000000,0.0000000,0.0000040,0.0000000,0.0000000,0.0000000,0.0000199,0.0000000,0.0000000,0.0000040
364.9931700,0.9996500,,-0.9990958,0.0424267,-0.0018831,0.0019904,-0.0001423,0.0066976,-0.0018144,,,,0.2173516,4.8160677,-15.9049110,0.0000000,0.0000000,0.0000000,0.0199930,0.0002004,0.0000000,0.0000000,0.0000200,0.0000000,0.0000000,0.0000000,0.0002004,0.0000000,0.0000000,0.0000200,0.0000000,0.0000000,0.0000000,0.0002004,0.0000000,0.0000000,0.0000200,0.0000200,0.0000000,0.0000000,0.0000040,0.0000000,0.0000000,0.0000000,0.0000200,0.0000000,0.0000000,0.0000040,0.0000000,0.0000000,0.0000000,0.0000200,0.0000000,0.0000000,0.0000040
365.0115690,1.0001000,,-0.9990958,0.0424267,-0.0018828,0.0019969,0.0017981,0.0027461,0.0008018,,,,0.2173516,4.8160677,-15.9049110,0.0000000,0.0000000,0.0000000,0.0200020,0.0002012,0.0000000,0.0000000,0.0000201,0.0000000,0.0000000,0.0000000,0.0002012,0.0000000,0.0000000,0.0000201,0.0000000,0.0000000,0.0000000,0.0002012,0.0000000,0.0000000,0.0000201,0.0000201,0.0000000,0.0000000,0.0000040,0.0000000,0.0000000,0.0000000,0.0000201,0.0000000,0.0000000,0.0000040,0.0000000,0.0000000,0.0000000,0.0000201,0.0000000,0.0000000,0.0000040
365.0326340,1.0499500,,-0.9990958,0.0424267,-0.0018946,0.0020037,-0.0014050,-0.0028842,0.0021023,,,,0.2173516,4.8160677,-15.9049110,0.0000000,0.0000000,0.0000000,0.0209990,0.0002021,0.0000000,0.0000000,0.0000202,0.0000000,0.0000000,0.0000000,0.0002021,0.0000000,0.0000000,0.0000202,0.0000000,0.0000000,0.0000000,0.0002021,0.0000000,0.0000000,0.0000202,0.0000202,0.0000000,0.0000000,0.0000040,0.0000000,0.0000000,0.0000000,0.0000202,0.0000000,0.0000000,0.0000040,0.0000000,0.0000000,0.0000000,0.0000202,0.0000000,0.0000000,0.0000040
365.0540250,1.0500000,,-0.9990958,0.0424268,-0.0018751,0.0020042,-0.0063712,0.0043028,0.0003187,,,,0.2173516,4.8160677,-15.9049110,0.0000000,0.0000000,0.0000000,0.0210000,0.0002029,0.0000000,0.0000000,0.0000203,0.0000000,0.0000000,0.0000000,0.0002029,0.0000000,0.0000000,0.0000203,0.0000000,0.0000000,0.0000000,0.0002029,0.0000000,0.0000000,0.0000203,0.0000203,0.0000000,0.0000000,0.0000040,0.0000000,0.0000000,0.0000000,0.0000203,0.0000000,0.0000000,0.0000040,0.0000000,0.0000000,0.0000000,0.0000203,0.0000000,0.0000000,0.0000040
365.0700600,,1.0000299,-0.9990958,0.0424268,-0.0018751,0.0020042,,,,0.0000000,0.0000000,0.0000000,0.2173516,4.8160677,-15.9049110,0.0000000,0.0000000,0.0000000,0.1000030,0.0001989,0.0000000,0.0000000,0.0000199,0.0000000,0.0000000,0.0000000,0.0001989,0.0000000,0.0000000,0.0000199,0.0000000,0.0000000,0.0000000,0.0001989,0.0000000,0.0000000,0.0000199,0.0000199,0.0000000,0.0000000,0.0000040,0.0000000,0.0000000,0.0000000,0.0000199,0.0000000,0.0000000,0.0000040,0.0000000,0.0000000,0.0000000,0.0000199,0.0000000,0.0000000,0.0000040
365.0838680,1.0004500,,-0.9990958,0.0424268,-0.0018650,0.0020094,-0.0073894,0.0079116,0.0023566,,,,0.2173516,4.8160677,-15.9049110,0.0000000,0.0000000,0.0000000,0.0200090,0.0001997,0.0000000,0.0000000,0.0000199,0.0000000,0.0000000,0.0000000,0.0001997,0.0000000,0.0000000,0.0000199,0.0000000,0.0000000,0.0000000,0.0001997,0.0000000,0.0000000,0.0000199,0.0000199,0.0000000,0.0000000,0.0000040,0.0000000,0.0000000,0.0000000,0.0000199,0.0000000,0.0000000,0.0000040,0.0000000,0.0000000,0.0000000,0.0000199,0.0000000,0.0000000,0.0000040
365.0965230,1.1495000,,-0.9990958,0.0424269,-0.0018593,0.0020340,-0.0081426,0.0038948,0.0009265,,,,0.2173516,4.8160677,-15.9049110,0.0000000,0.0000000,0.0000000,0.0229900,0.0002006,0.0000000,0.0000000,0.0000200,0.0000000,0.0000000,0.0000000,0.0002006,0.0000000,0.0000000,0.0000200,0.0000000,0.0000000,0.0000000,0.0002006,0.0000000,0.0000000,0.0000200,0.0000200,0.0000000,0.0000000,0.0000040,0.0000000,0.0000000,0.0000000,0.0000200,0.0000000,0.0000000,0.0000040,0.0000000,0.0000000,0.0000000,0.0000200,0.0000000,0.0000000,0.0000040
365.1166350,1.0000501,,-0.9990958,0.0424269,-0.0018491,0.0020254,-0.0016681,0.0077076,0.0031488,,,,0.2173516,4.8160677,-15.9049110,0.0000000,0.0000000,0.0000000,0.0200010,0.0002014,0.0000000,0.0000000,0.0000201,0.0000000,0.0000000,0.0000000,0.0002014,0.0000000,0.0000000,0.0000201,0.0000000,0.0000000,0.0000000,0.0002014,0.0000000,0.0000000,0.0000201,0.0000201,0.0000000,0.0000000,0.0000040,0.0000000,0.0000000,0.0000000,0.0000201,0.0000000,0.0000000,0.0000040,0.0000000,0.0000000,0.0000000,0.0000201,0.0000000,0.0000000,0.0000040
365.1376070,1.0500000,,-0.9990959,0.0424269,-0.0018352,0.0020175,-0.0032983,0.0022821,-0.0003787,,,,0.2173516,4.8160677,-15.9049110,0.0000000,0.0000000,0.0000000,0.0210000,0.0002022,0.0000000,0.0000000,0.0000202,0.0000000,0.0000000,0.0000000,0.0002022,0.0000000,0.0000000,0.0000202,0.0000000,0.0000000,0.0000000,0.0002022,0.0000000,0.0000000,0.0000202,0.0000202,0.0000000,0.0000000,0.0000040,0.0000000,0.0000000,0.0000000,0.0000202,0.0000000,0.0000000,0.0000040,0.0000000,0.0000000,0.0000000,0.0000202,0.0000000,0.0000000,0.0000040
365.1615180,,1.0100700,-0.9990958,0.0424269,-0.0018379,0.0020240,,,,0.0000000,0.0000000,0.0000000,0.2173516,4.8160677,-15.9049110,0.0000000,0.0000000,0.0000000,0.1010070,0.0001982,0.0000000,0.0000000,0.0000198,0.0000000,0.0000000,0.0000000,0.0001982,0.0000000,0.0000000,0.0000198,0.0000000,0.0000000,0.0000000,0.0001982,0.0000000,0.0000000,0.0000198,0.0000198,0.0000000,0.0000000,0.0000040,0.0000000,0.0000000,0.0000000,0.0000198,0.0000000,0.0000000,0.0000040,0.0000000,0.0000000,0.0000000,0.0000198,0.0000000,0.0000000,0.0000040
365.1746010,1.1001000,,-0.9990958,0.0424269,-0.0018379,0.0020240,-0.0077908,-0.0077319,-0.0045839,,,,0.2173516,4.8160677,-15.9049110,0.0000000,0.0000000,0.0000000,0.0220020,0.0001991,0.0000000,0.0000000,0.0000199,0.0000000,0.0000000,0.0000000,0.0001991,0.0000000,0.0000000,0.0000199,0.0000000,0.0000000,0.0000000,0.0001991,0.0000000,0.0000000,0.0000199,0.0000199,0.0000000,0.0000000,0.0000040,0.0000000,0.0000000,0.0000000,0.0000199,0.0000000,0.0000000,0.0000040,0.0000000,0.0000000,0.0000000,0.0000199,0.0000000,0.0000000,0.0000040
365.1893770,1.3998500,,-0.9990956,0.0424270,-0.0018790,0.0020805,-0.0057188,-0.0048196,0.0011184,,,,0.2173516,4.8160677,-15.9049110,0.0000000,0.0000000,0.0000000,0.0279970,0.0002002,0.0000000,0.0000000,0.0000200,0.0000000,0.0000000,0.0000000,0.0002002,0.0000000,0.0000000,0.0000200,0.0000000,0.0000000,0.0000000,0.0002002,0.0000000,0.0000000,0.0000200,0.0000200,0.0000000,0.0000000,0.0000040,0.0000000,0.0000000,0.0000000,0.0000200,0.0000000,0.0000000,0.0000040,0.0000000,0.0000000,0.0000000,0.0000200,0.0000000,0.0000000,0.0000040
365.2079380,1.0002501,,-0.9990963,0.0424165,-0.0018529,0.0020010,-0.0067962,-0.0018758,-0.0035912,,,,0.2173516,4.8160677,-15.9049110,0.0000000,0.0000000,0.0000000,0.0200050,0.0002010,0.0000000,0.0000000,0.0000201,0.0000000,0.0000000,0.0000000,0.0002010,0.0000000,0.0000000,0.0000201,0.0000000,0.0000000,0.0000000,0.0002010,0.0000000,0.0000000,0.0000201,0.0000201,0.0000000,0.0000000,0.0000040,0.0000000,0.0000000,0.0000000,0.0000201,0.0000000,0.0000000,0.0000040,0.0000000,0.0000000,0.0000000,0.0000201,0.0000000,0.0000000,0.0000040
365.2278910,1.0002000,,-0.9990987,0.0423763,-0.0017715,0.0017111,0.0032776,0.0178915,-0.0276745,,,,0.2173516,4.8160677,-15.9049110,0.0000000,0.0000000,0.0000000,0.0200040,0.0002018,0.0000000,0.0000000,0.0000202,0.0000000,0.0000000,0.0000000,0.0002018,0.0000000,0.0000000,0.0000202,0.0000000,0.0000000,0.0000000,0.0002018,0.0000000,0.0000000,0.0000202,0.0000202,0.0000000,0.0000000,0.0000040,0.0000000,0.0000000,0.0000000,0.0000202,0.0000000,0.0000000,0.0000040,0.0000000,0.0000000,0.0000000,0.0000202,0.0000000,0.0000000,0.0000040
365.2477200,0.9996500,,-0.9991050,0.0422412,-0.0014996,0.0015486,0.0143875,-0.0269658,0.0157038,,,,0.2173516,4.8160677,-15.9049110,0.0000000,0.0000000,0.0000000,0.0199930,0.0002026,0.0000000,0.0000000,0.0000202,0.0000000,0.0000000,0.0000000,0.0002026,0.0000000,0.0000000,0.0000202,0.0000000,0.0000000,0.0000000,0.0002026,0.0000000,0.0000000,0.0000202,0.0000202,0.0000000,0.0000000,0.0000040,0.0000000,0.0000000,0.0000000,0.0000202,0.0000000,0.0000000,0.0000040,0.0000000,0.0000000,0.0000000,0.0000202,0.0000000,0.0000000,0.0000040
365.2644640,,0.9998900,-0.9991050,0.0422412,-0.0014996,0.0015486,,,,0.0000000,0.0000000,0.0000000,0.2173516,4.8160677,-15.9049110,0.0000000,0.0000000,0.0000000,0.0999890,0.0001986,0.0000000,0.0000000,0.0000198,0.0000000,0.0000000,0.0000000,0.0001986,0.0000000,0.0000000,0.0000198,0.0000000,0.0000000,0.0000000,0.0001986,0.0000000,0.0000000,0.0000198,0.0000198,0.0000000,0.0000000,0.0000040,0.0000000,0.0000000,0.0000000,0.0000198,0.0000000,0.0000000,0.0000040,0.0000000,0.0000000,0.0000000,0.0000198,0.0000000,0.0000000,0.0000040
365.2775540,1.1006001,,-0.9991093,0.0421491,-0.0013535,0.0014596,0.0143501,0.0035688,0.0120023,,,,0.2173516,4.8160677,-15.9049110,0.0000000,0.0000000,0.0000000,0.0220120,0.0001995,0.0000000,0.0000000,0.0000199,0.0000000,0.0000000,0.0000000,0.0001995,0.0000000,0.0000000,0.0000199,0.0000000,0.0000000,0.0000000,0.0001995,0.0000000,0.0000000,0.0000199,0.0000199,0.0000000,0.0000000,0.0000040,0.0000000,0.0000000,0.0000000,0.0000199,0.0000000,0.0000000,0.0000040,0.0000000,0.0000000,0.0000000,0.0000199,0.0000000,0.0000000,0.0000040
365.2910190,1.0497000,,-0.9991114,0.0421030,-0.0012946,0.0014325,0.0101505,0.0186225,0.0040480,,,,0.2173516,4.8160677,-15.9049110,0.0000000,0.0000000,0.0000000,0.0209940,0.0002003,0.0000000,0.0000000,0.0000200,0.0000000,0.0000000,0.0000000,0.0002003,0.0000000,0.0000000,0.0000200,0.0000000,0.0000000,0.0000000,0.0002003,0.0000000,0.0000000,0.0000200,0.0000200,0.0000000,0.0000000,0.0000040,0.0000000,0.0000000,0.0000000,0.0000200,0.0000000,0.0000000,0.0000040,0.0000000,0.0000000,0.0000000,0.0000200,0.0000000,0.0000000,0.0000040
365.3109300,1.0001000,,-0.9991120,0.0420881,-0.0012803,0.0014147,0.0055788,0.0327335,-0.0104272,,,,0.2173516,4.8160677,-15.9049110,0.0000000,0.0000000,0.0000000,0.0200020,0.0002011,0.0000000,0.0000000,0.0000201,0.0000000,0.0000000,0.0000000,0.0002011,0.0000000,0.0000000,0.0000201,0.0000000,0.0000000,0.0000000,0.0002011,0.0000000,0.0000000,0.0000201,0.0000201,0.0000000,0.0000000,0.0000040,0.0000000,0.0000000,0.0000000,0.0000201,0.0000000,0.0000000,0.0000040,0.0000000,0.0000000,0.0000000,0.0000201,0.0000000,0.0000000,0.0000040
365.3307740,0.9998500,,-0.9991124,0.0420807,-0.0012752,0.0013967,0.0003633,0.0324495,-0.0183972,,,,0.2173516,4.8160677,-15.9049110,0.0000000,0.0000000,0.0000000,0.0199970,0.0002019,0.0000000,0.0000000,0.0000202,0.0000000,0.0000000,0.0000000,0.0002019,0.0000000,0.0000000,0.0000202,0.0000000,0.0000000,0.0000000,0.0002019,0.0000000,0.0000000,0.0000202,0.0000202,0.0000000,0.0000000,0.0000040,0.0000000,0.0000000,0.0000000,0.0000202,0.0000000,0.0000000,0.0000040,0.0000000,0.0000000,0.0000000,0.0000202,0.0000000,0.0000000,0.0000040
365.3505910,0.9997500,,-0.9991126,0.0420769,-0.0012852,0.0013514,0.0070023,0.0239381,-0.0153021,,,,0.2173516,4.8160677,-15.9049110,0.0000000,0.0000000,0.0000000,0.0199950,0.0002027,0.0000000,0.0000000,0.0000203,0.0000000,0.0000000,0.0000000,0.0002027,0.0000000,0.0000000,0.0000203,0.0000000,0.0000000,0.0000000,0.0002027,0.0000000,0.0000000,0.0000203,0.0000203,0.0000000,0.0000000,0.0000040,0.0000000,0.0000000,0.0000000,0.0000203,0.0000000,0.0000000,0.0000040,0.0000000,0.0000000,0.0000000,0.0000203,0.0000000,0.0000000,0.0000040
365.3675060,,1.0001700,-0.9991126,0.0420769,-0.0012852,0.0013514,,,,-0.0155024,0.0013081,-0.0000382,0.2170436,4.8160939,-15.9049120,-0.0000308,0.0000026,-0.0000001,0.1000170,0.0001987,0.0000000,0.0000000,0.0000199,0.0000000,0.0000000,0.0000000,0.0001987,0.0000000,0.0000000,0.0000199,0.0000000,0.0000000,0.0000000,0.0001987,0.0000000,0.0000000,0.0000199,0.0000199,0.0000000,0.0000000,0.0000040,0.0000000,0.0000000,0.0000000,0.0000199,0.0000000,0.0000000,0.0000040,0.0000000,0.0000000,0.0000000,0.0000199,0.0000000,0.0000000,0.0000040
365.3806960,1.1002001,,-0.9991126,0.0420751,-0.0012882,0.0013908,0.0064232,-0.0002151,-0.0049655,,,,0.2170436,4.8160939,-15.9049120,0.0000000,0.0000000,0.0000000,0.0220040,0.0001996,0.0000000,0.0000000,0.0000199,0.0000000,0.0000000,0.0000000,0.0001996,0.0000000,0.0000000,0.0000199,0.0000000,0.0000000,0.0000000,0.0001996,0.0000000,0.0000000,0.0000199,0.0000199,0.0000000,0.0000000,0.0000040,0.0000000,0.0000000,0.0000000,0.0000199,0.0000000,0.0000000,0.0000040,0.0000000,0.0000000,0.0000000,0.0000199,0.0000000,0.0000000,0.0000040
365.3940160,1.0497000,,-0.9991127,0.0420742,-0.0012838,0.0013948,-0.0026401,0.0052559,0.0009352,,,,0.2170436,4.8160939,-15.9049120,0.0000000,0.0000000,0.0000000,0.0209940,0.0002004,0.0000000,0.0000000,0.0000200,0.0000000,0.0000000,0.0000000,0.0002004,0.0000000,0.0000000,0.0000200,0.0000000,0.0000000,0.0000000,0.0002004,0.0000000,0.0000000,0.0000200,0.0000200,0.0000000,0.0000000,0.0000040,0.0000000,0.0000000,0.0000000,0.0000200,0.0000000,0.0000000,0.0000040,0.0000000,0.0000000,0.0000000,0.0000200,0.0000000,0.0000000,0.0000040
365.4139240,1.0006001,,-0.9991127,0.0420737,-0.0012644,0.0013943,-0.0090944,0.0167729,-0.0058800,,,,0.2170436,4.8160939,-15.9049120,0.0000000,0.0000000,0.0000000,0.0200120,0.0002012,0.0000000,0.0000000,0.0000201,0.0000000,0.0000000,0.0000000,0.0002012,0.0000000,0.0000000,0.0000201,0.0000000,0.0000000,0.0000000,0.0002012,0.0000000,0.0000000,0.0000201,0.0000201,0.0000000,0.0000000,0.0000040,0.0000000,0.0000000,0.0000000,0.0000201,0.0000000,0.0000000,0.0000040,0.0000000,0.0000000,0.0000000,0.0000201,0.0000000,0.0000000,0.0000040
365.4338990,0.9996000,,-0.9991127,0.0420735,-0.0012527,0.0013957,-0.0093842,0.0296114,-0.0070904,,,,0.2170436,4.8160939,-15.9049120,0.0000000,0.0000000,0.0000000,0.0199920,0.0002020,0.0000000,0.0000000,0.0000202,0.0000000,0.0000000,0.0000000,0.0002020,0.0000000,0.0000000,0.0000202,0.0000000,0.0000000,0.0000000,0.0002020,0.0000000,0.0000000,0.0000202,0.0000202,0.0000000,0.0000000,0.0000040,0.0000000,0.0000000,0.0000000,0.0000202,0.0000000,0.0000000,0.0000040,0.0000000,0.0000000,0.0000000,0.0000202,0.0000000,0.0000000,0.0000040
365.4537680,1.0002501,,-0.9991127,0.0420734,-0.0012789,0.0013870,-0.0069123,0.0054978,-0.0074515,,,,0.2170436,4.8160939,-15.9049120,0.0000000,0.0000000,0.0000000,0.0200050,0.0002028,0.0000000,0.0000000,0.0000203,0.0000000,0.0000000,0.0000000,0.0002028,0.0000000,0.0000000,0.0000203,0.0000000,0.0000000,0.0000000,0.0002028,0.0000000,0.0000000,0.0000203,0.0000203,0.0000000,0.0000000,0.0000040,0.0000000,0.0000000,0.0000000,0.0000203,0.0000000,0.0000000,0.0000040,0.0000000,0.0000000,0.0000000,0.0000203,0.0000000,0.0000000,0.0000040
365.4700540,,1.0198100,-0.9991127,0.0420734,-0.0012789,0.0013870,,,,-0.0474711,-0.0038010,-0.0001370,0.2161000,4.8160186,-15.9049149,-0.0000943,-0.0000075,-0.0000003,0.1019810,0.0001988,0.0000000,0.0000000,0.0000199,0.0000000,0.0000000,0.0000000,0.0001988,0.0000000,0.0000000,0.0000199,0.0000000,0.0000000,0.0000000,0.0001988,0.0000000,0.0000000,0.0000199,0.0000199,0.0000000,0.0000000,0.0000040,0.0000000,0.0000000,0.0000000,0.0000199,0.0000000,0.0000000,0.0000040,0.0000000,0.0000000,0.0000000,0.0000199,0.0000000,0.0000000,0.0000040
365.4836480,1.1003000,,-0.9991127,0.0420733,-0.0013025,0.0014165,0.0040741,0.0001015,-0.0015285,,,,0.2161000,4.8160186,-15.9049149,0.0000000,0.0000000,0.0000000,0.0220060,0.0001997,0.0000000,0.0000000,0.0000199,0.0000000,0.0000000,0.0000000,0.0001997,0.0000000,0.0000000,0.0000199,0.0000000,0.0000000,0.0000000,0.0001997,0.0000000,0.0000000,0.0000199,0.0000199,0.0000000,0.0000000,0.0000040,0.0000000,0.0000000,0.0000000,0.0000199,0.0000000,0.0000000,0.0000040,0.0000000,0.0000000,0.0000000,0.0000199,0.0000000,0.0000000,0.0000040
365.4967770,1.0493500,,-0.9991127,0.0420732,-0.0013146,0.0013986,0.0022354,-0.0048549,-0.0010084,,,,0.2161000,4.8160186,-15.9049149,0.0000000,0.0000000,0.0000000,0.0209870,0.0002005,0.0000000,0.0000000,0.0000200,0.0000000,0.0000000,0.0000000,0.0002005,0.0000000,0.0000000,0.0000200,0.0000000,0.0000000,0.0000000,0.0002005,0.0000000,0.0000000,0.0000200,0.0000200,0.0000000,0.0000000,0.0000040,0.0000000,0.0000000,0.0000000,0.0000200,0.0000000,0.0000000,0.0000040,0.0000000,0.0000000,0.0000000,0.0000200,0.0000000,0.0000000,0.0000040
365.5169510,1.0003999,,-0.9991127,0.0420732,-0.0013426,0.0013681,0.0093269,0.0087343,-0.0019690,,,,0.2161000,4.8160186,-15.9049149,0.0000000,0.0000000,0.0000000,0.0200080,0.0002013,0.0000000,0.0000000,0.0000201,0.0000000,0.0000000,0.0000000,0.0002013,0.0000000,0.0000000,0.0000201,0.0000000,0.0000000,0.0000000,0.0002013,0.0000000,0.0000000,0.0000201,0.0000201,0.0000000,0.0000000,0.0000040,0.0000000,0.0000000,0.0000000,0.0000201,0.0000000,0.0000000,0.0000040,0.0000000,0.0000000,0.0000000,0.0000201,0.0000000,0.0000000,0.0000040
365.5365650,0.9996000,,-0.9991127,0.0420732,-0.0013377,0.0013673,0.0029011,-0.0032393,-0.0012287,,,,0.2161000,4.8160186,-15.9049149,0.0000000,0.0000000,0.0000000,0.0199920,0.0002021,0.0000000,0.0000000,0.0000202,0.0000000,0.0000000,0.0000000,0.0002021,0.0000000,0.0000000,0.0000202,0.0000000,0.0000000,0.0000000,0.0002021,0.0000000,0.0000000,0.0000202,0.0000202,0.0000000,0.0000000,0.0000040,0.0000000,0.0000000,0.0000000,0.0000202,0.0000000,0.0000000,0.0000040,0.0000000,0.0000000,0.0000000,0.0000202,0.0000000,0.0000000,0.0000040
365.5576470,1.0500000,,-0.9991126,0.0420732,-0.0013625,0.0013935,-0.0054846,-0.0138114,-0.0006143,,,,0.2161000,4.8160186,-15.9049149,0.0000000,0.0000000,0.0000000,0.0210000,0.0002030,0.0000000,0.0000000,0.0000203,0.0000000,0.0000000,0.0000000,0.0002030,0.0000000,0.0000000,0.0000203,0.0000000,0.0000000,0.0000000,0.0002030,0.0000000,0.0000000,0.0000203,0.0000203,0.0000000,0.0000000,0.0000040,0.0000000,0.0000000,0.0000000,0.0000203,0.0000000,0.0000000,0.0000040,0.0000000,0.0000000,0.0000000,0.0000203,0.0000000,0.0000000,0.0000040
365.5739670,,1.0200700,-0.9991126,0.0420732,-0.0013625,0.0013935,,,,-0.0248569,-0.0058652,-0.0000862,0.2156055,4.8159018,-15.9049168,-0.0000494,-0.0000117,-0.0000002,0.1020070,0.0001989,0.0000000,0.0000000,0.0000199,0.0000000,0.0000000,0.0000000,0.0001989,0.0000000,0.0000000,0.0000199,0.0000000,0.0000000,0.0000000,0.0001989,0.0000000,0.0000000,0.0000199,0.0000199,0.0000000,0.0000000,0.0000040,0.0000000,0.0000000,0.0000000,0.0000199,0.0000000,0.0000000,0.0000040,0.0000000,0.0000000,0.0000000,0.0000199,0.0000000,0.0000000,0.0000040
365.5875220,1.1001000,,-0.9991127,0.0420731,-0.0013645,0.0013655,-0.0025821,-0.0011150,-0.0066548,,,,0.2156055,4.8159018,-15.9049168,0.0000000,0.0000000,0.0000000,0.0220020,0.0001998,0.0000000,0.0000000,0.0000200,0.0000000,0.0000000,0.0000000,0.0001998,0.0000000,0.0000000,0.0000200,0.0000000,0.0000000,0.0000000,0.0001998,0.0000000,0.0000000,0.0000200,0.0000200,0.0000000,0.0000000,0.0000040,0.0000000,0.0000000,0.0000000,0.0000200,0.0000000,0.0000000,0.0000040,0.0000000,0.0000000,0.0000000,0.0000200,0.0000000,0.0000000,0.0000040
365.6010090,1.0500000,,-0.9991126,0.0420732,-0.0013538,0.0014217,-0.0057390,-0.0126959,-0.0077219,,,,0.2156055,4.8159018,-15.9049168,0.0000000,0.0000000,0.0000000,0.0210000,0.0002006,0.0000000,0.0000000,0.0000200,0.0000000,0.0000000,0.0000000,0.0002006,0.0000000,0.0000000,0.0000200,0.0000000,0.0000000,0.0000000,0.0002006,0.0000000,0.0000000,0.0000200,0.0000200,0.0000000,0.0000000,0.0000040,0.0000000,0.0000000,0.0000000,0.0000200,0.0000000,0.0000000,0.0000040,0.0000000,0.0000000,0.0000000,0.0000200,0.0000000,0.0000000,0.0000040
365.6221970,1.0003999,,-0.9991126,0.0420732,-0.0013578,0.0013959,0.0036460,0.0063092,-0.0102086,,,,0.2156055,4.8159018,-15.9049168,0.0000000,0.0000000,0.0000000,0.0200080,0.0002014,0.0000000,0.0000000,0.0000201,0.0000000,0.0000000,0.0000000,0.0002014,0.0000000,0.0000000,0.0000201,0.0000000,0.0000000,0.0000000,0.0002014,0.0000000,0.0000000,0.0000201,0.0000201,0.0000000,0.0000000,0.0000040,0.0000000,0.0000000,0.0000000,0.0000201,0.0000000,0.0000000,0.0000040,0.0000000,0.0000000,0.0000000,0.0000201,0.0000000,0.0000000,0.0000040
365.6409650,0.9998500,,-0.9991126,0.0420732,-0.0013439,0.0014111,-0.0040821,-0.0126916,-0.0011981,,,,0.2156055,4.8159018,-15.9049168,0.0000000,0.0000000,0.0000000,0.0199970,0.0002022,0.0000000,0.0000000,0.0000202,0.0000000,0.0000000,0.0000000,0.0002022,0.0000000,0.0000000,0.0000202,0.0000000,0.0000000,0.0000000,0.0002022,0.0000000,0.0000000,0.0000202,0.0000202,0.0000000,0.0000000,0.0000040,0.0000000,0.0000000,0.0000000,0.0000202,0.0000000,0.0000000,0.0000040,0.0000000,0.0000000,0.0000000,0.0000202,0.0000000,0.0000000,0.0000040
365.6610000,1.0001501,,-0.9991126,0.0420733,-0.0013284,0.0014507,-0.0015757,-0.0057736,-0.0071908,,,,0.2156055,4.8159018,-15.9049168,0.0000000,0.0000000,0.0000000,0.0200030,0.0002030,0.0000000,0.0000000,0.0000203,0.0000000,0.0000000,0.0000000,0.0002030,0.0000000,0.0000000,0.0000203,0.0000000,0.0000000,0.0000000,0.0002030,0.0000000,0.0000000,0.0000203,0.0000203,0.0000000,0.0000000,0.0000040,0.0000000,0.0000000,0.0000000,0.0000203,0.0000000,0.0000000,0.0000040,0.0000000,0.0000000,0.0000000,0.0000203,0.0000000,0.0000000,0.0000040
365.6769320,,0.9999700,-0.9991126,0.0420733,-0.0013284,0.0014263,,,,-0.0392531,0.0031527,-0.0001002,0.2148244,4.8159647,-15.9049187,-0.0000780,0.0000063,-0.0000002,0.0999970,0.0001990,0.0000000,0.0000000,0.0000199,0.0000000,0.0000000,0.0000000,0.0001990,0.0000000,0.0000000,0.0000199,0.0000000,0.0000000,0.0000000,0.0001990,0.0000000,0.0000000,0.0000199,0.0000199,0.0000000,0.0000000,0.0000040,0.0000000,0.0000000,0.0000000,0.0000199,0.0000000,0.0000000,0.0000040,0.0000000,0.0000000,0.0000000,0.0000199,0.0000000,0.0000000,0.0000040
365.6911530,0.9998000,,-0.9991127,0.0420733,-0.0012990,0.0014263,-0.0022374,0.0093126,-0.0150700,,,,0.2148244,4.8159647,-15.9049187,0.0000000,0.0000000,0.0000000,0.0199960,0.0001998,0.0000000,0.0000000,0.0000200,0.0000000,0.0000000,0.0000000,0.0001998,0.0000000,0.0000000,0.0000200,0.0000000,0.0000000,0.0000000,0.0001998,0.0000000,0.0000000,0.0000200,0.0000200,0.0000000,0.0000000,0.0000040,0.0000000,0.0000000,0.0000000,0.0000200,0.0000000,0.0000000,0.0000040,0.0000000,0.0000000,0.0000000,0.0000200,0.0000000,0.0000000,0.0000040
365.7057020,1.2496500,,-0.9991126,0.0420734,-0.0012805,0.0014806,-0.0067034,0.0074639,-0.0031405,,,,0.2148244,4.8159647,-15.9049187,0.0000000,0.0000000,0.0000000,0.0249930,0.0002008,0.0000000,0.0000000,0.0000201,0.0000000,0.0000000,0.0000000,0.0002008,0.0000000,0.0000000,0.0000201,0.0000000,0.0000000,0.0000000,0.0002008,0.0000000,0.0000000,0.0000201,0.0000201,0.0000000,0.0000000,0.0000040,0.0000000,0.0000000,0.0000000,0.0000201,0.0000000,0.0000000,0.0000040,0.0000000,0.0000000,0.0000000,0.0000201,0.0000000,0.0000000,0.0000040
365.7282560,1.0503500,,-0.9991126,0.0420734,-0.0012727,0.0014852,-0.0118737,-0.0042408,-0.0023027,,,,0.2148244,4.8159647,-15.9049187,0.0000000,0.0000000,0.0000000,0.0210070,0.0002016,0.0000000,0.0000000,0.0000201,0.0000000,0.0000000,0.0000000,0.0002016,0.0000000,0.0000000,0.0000201,0.0000000,0.0000000,0.0000000,0.0002016,0.0000000,0.0000000,0.0000201,0.0000201,0.0000000,0.0000000,0.0000040,0.0000000,0.0000000,0.0000000,0.0000201,0.0000000,0.0000000,0.0000040,0.0000000,0.0000000,0.0000000,0.0000201,0.0000000,0.0000000,0.0000040
365.7467400,1.0000000,,-0.9991125,0.0420735,-0.0012856,0.0015131,-0.0025265,-0.0061411,0.0034873,,,,0.2148244,4.8159647,-15.9049187,0.0000000,0.0000000,0.0000000,0.0200000,0.0002024,0.0000000,0.0000000,0.0000202,0.0000000,0.0000000,0.0000000,0.0002024,0.0000000,0.0000000,0.0000202,0.0000000,0.0000000,0.0000000,0.0002024,0.0000000,0.0000000,0.0000202,0.0000202,0.0000000,0.0000000,0.0000040,0.0000000,0.0000000,0.0000000,0.0000202,0.0000000,0.0000000,0.0000040,0.0000000,0.0000000,0.0000000,0.0000202,0.0000000,0.0000000,0.0000040
365.7640880,,0.9999800,-0.9991125,0.0420735,-0.0012856,0.0015260,,,,-0.0479461,-0.0037641,-0.0001402,0.2138730,4.8158898,-15.9049215,-0.0000951,-0.0000075,-0.0000003,0.0999980,0.0001984,0.0000000,0.0000000,0.0000198,0.0000000,0.0000000,0.0000000,0.0001984,0.0000000,0.0000000,0.0000198,0.0000000,0.0000000,0.0000000,0.0001984,0.0000000,0.0000000,0.0000198,0.0000198,0.0000000,0.0000000,0.0000040,0.0000000,0.0000000,0.0000000,0.0000198,0.0000000,0.0000000,0.0000040,0.0000000,0.0000000,0.0000000,0.0000198,0.0000000,0.0000000,0.0000040
365.7767980,1.0001000,,-0.9991125,0.0420734,-0.0013093,0.0015260,-0.0049712,-0.0117299,0.0012554,,,,0.2138730,4.8158898,-15.9049215,0.0000000,0.0000000,0.0000000,0.0200020,0.0001992,0.0000000,0.0000000,0.0000199,0.0000000,0.0000000,0.0000000,0.0001992,0.0000000,0.0000000,0.0000199,0.0000000,0.0000000,0.0000000,0.0001992,0.0000000,0.0000000,0.0000199,0.0000199,0.0000000,0.0000000,0.0000040,0.0000000,0.0000000,0.0000000,0.0000199,0.0000000,0.0000000,0.0000040,0.0000000,0.0000000,0.0000000,0.0000199,0.0000000,0.0000000,0.0000040
365.7897020,1.1500500,,-0.9991125,0.0420735,-0.0012925,0.0015070,0.0055863,0.0059301,-0.0086496,,,,0.2138730,4.8158898,-15.9049215,0.0000000,0.0000000,0.0000000,0.0230010,0.0002001,0.0000000,0.0000000,0.0000200,0.0000000,0.0000000,0.0000000,0.0002001,0.0000000,0.0000000,0.0000200,0.0000000,0.0000000,0.0000000,0.0002001,0.0000000,0.0000000,0.0000200,0.0000200,0.0000000,0.0000000,0.0000040,0.0000000,0.0000000,0.0000000,0.0000200,0.0000000,0.0000000,0.0000040,0.0000000,0.0000000,0.0000000,0.0000200,0.0000000,0.0000000,0.0000040
365.8107760,1.0496000,,-0.9991126,0.0420735,-0.0012542,0.0014951,-0.0010444,0.0108462,-0.0087194,,,,0.2138730,4.8158898,-15.9049215,0.0000000,0.0000000,0.0000000,0.0209920,0.0002010,0.0000000,0.0000000,0.0000201,0.0000000,0.0000000,0.0000000,0.0002010,0.0000000,0.0000000,0.0000201,0.0000000,0.0000000,0.0000000,0.0002010,0.0000000,0.0000000,0.0000201,0.0000201,0.0000000,0.0000000,0.0000040,0.0000000,0.0000000,0.0000000,0.0000201,0.0000000,0.0000000,0.0000040,0.0000000,0.0000000,0.0000000,0.0000201,0.0000000,0.0000000,0.0000040
365.8321720,1.0498999,,-0.9991126,0.0420736,-0.0012310,0.0015026,-0.0043445,0.0162645,-0.0009417,,,,0.2138730,4.8158898,-15.9049215,0.0000000,0.0000000,0.0000000,0.0209980,0.0002018,0.0000000,0.0000000,0.0000202,0.0000000,0.0000000,0.0000000,0.0002018,0.0000000,0.0000000,0.0000202,0.0000000,0.0000000,0.0000000,0.0002018,0.0000000,0.0000000,0.0000202,0.0000202,0.0000000,0.0000000,0.0000040,0.0000000,0.0000000,0.0000000,0.0000202,0.0000000,0.0000000,0.0000040,0.0000000,0.0000000,0.0000000,0.0000202,0.0000000,0.0000000,0.0000040
365.8518590,1.0002999,,-0.9991127,0.0420736,-0.0011945,0.0015030,-0.0096109,0.0084679,0.0107596,,,,0.2138730,4.8158898,-15.9049215,0.0000000,0.0000000,0.0000000,0.0200060,0.0002026,0.0000000,0.0000000,0.0000202,0.0000000,0.0000000,0.0000000,0.0002026,0.0000000,0.0000000,0.0000202,0.0000000,0.0000000,0.0000000,0.0002026,0.0000000,0.0000000,0.0000202,0.0000202,0.0000000,0.0000000,0.0000040,0.0000000,0.0000000,0.0000000,0.0000202,0.0000000,0.0000000,0.0000040,0.0000000,0.0000000,0.0000000,0.0000202,0.0000000,0.0000000,0.0000040
365.8680640,,1.0000000,-0.9991127,0.0420736,-0.0011945,0.0015030,,,,-0.0009589,-0.0000753,-0.0000026,0.2138540,4.8158884,-15.9049215,-0.0000019,-0.0000001,-0.0000000,0.1000000,0.0001986,0.0000000,0.0000000,0.0000198,0.0000000,0.0000000,0.0000000,0.0001986,0.0000000,0.0000000,0.0000198,0.0000000,0.0000000,0.0000000,0.0001986,0.0000000,0.0000000,0.0000198,0.0000198,0.0000000,0.0000000,0.0000040,0.0000000,0.0000000,0.0000000,0.0000198,0.0000000,0.0000000,0.0000040,0.0000000,0.0000000,0.0000000,0.0000198,0.0000000,0.0000000,0.0000040
365.8817110,0.9999500,,-0.9991127,0.0420737,-0.0011823,0.0015181,-0.0034627,0.0050885,0.0012294,,,,0.2138540,4.8158884,-15.9049215,0.0000000,0.0000000,0.0000000,0.0199990,0.0001994,0.0000000,0.0000000,0.0000199,0.0000000,0.0000000,0.0000000,0.0001994,0.0000000,0.0000000,0.0000199,0.0000000,0.0000000,0.0000000,0.0001994,0.0000000,0.0000000,0.0000199,0.0000199,0.0000000,0.0000000,0.0000040,0.0000000,0.0000000,0.0000000,0.0000199,0.0000000,0.0000000,0.0000040,0.0000000,0.0000000,0.0000000,0.0000199,0.0000000,0.0000000,0.0000040
365.8946770,1.1497000,,-0.9991127,0.0420737,-0.0011785,0.0015151,0.0081487,0.0014227,-0.0045122,,,,0.2138540,4.8158884,-15.9049215,0.0000000,0.0000000,0.0000000,0.0229940,0.0002003,0.0000000,0.0000000,0.0000200,0.0000000,0.0000000,0.0000000,0.0002003,0.0000000,0.0000000,0.0000200,0.0000000,0.0000000,0.0000000,0.0002003,0.0000000,0.0000000,0.0000200,0.0000200,0.0000000,0.0000000,0.0000040,0.0000000,0.0000000,0.0000000,0.0000200,0.0000000,0.0000000,0.0000040,0.0000000,0.0000000,0.0000000,0.0000200,0.0000000,0.0000000,0.0000040
365.9146180,1.0001000,,-0.9991127,0.0420737,-0.0011749,0.0015040,0.0037005,-0.0121518,0.0072654,,,,0.2138540,4.8158884,-15.9049215,0.0000000,0.0000000,0.0000000,0.0200020,0.0002011,0.0000000,0.0000000,0.0000201,0.0000000,0.0000000,0.0000000,0.0002011,0.0000000,0.0000000,0.0000201,0.0000000,0.0000000,0.0000000,0.0002011,0.0000000,0.0000000,0.0000201,0.0000201,0.0000000,0.0000000,0.0000040,0.0000000,0.0000000,0.0000000,0.0000201,0.0000000,0.0000000,0.0000040,0.0000000,0.0000000,0.0000000,0.0000201,0.0000000,0.0000000,0.0000040
365.9360030,1.0500500,,-0.9991127,0.0420736,-0.0011896,0.0014665,0.0116998,0.0039491,-0.0032033,,,,0.2138540,4.8158884,-15.9049215,0.0000000,0.0000000,0.0000000,0.0210010,0.0002020,0.0000000,0.0000000,0.0000202,0.0000000,0.0000000,0.0000000,0.0002020,0.0000000,0.0000000,0.0000202,0.0000000,0.0000000,0.0000000,0.0002020,0.0000000,0.0000000,0.0000202,0.0000202,0.0000000,0.0000000,0.0000040,0.0000000,0.0000000,0.0000000,0.0000202,0.0000000,0.0000000,0.0000040,0.0000000,0.0000000,0.0000000,0.0000202,0.0000000,0.0000000,0.0000040
365.9560890,1.0002999,,-0.9991128,0.0420736,-0.0011820,0.0014314,-0.0040530,0.0205140,-0.0057520,,,,0.2138540,4.8158884,-15.9049215,0.0000000,0.0000000,0.0000000,0.0200060,0.0002028,0.0000000,0.0000000,0.0000203,0.0000000,0.0000000,0.0000000,0.0002028,0.0000000,0.0000000,0.0000203,0.0000000,0.0000000,0.0000000,0.0002028,0.0000000,0.0000000,0.0000203,0.0000203,0.0000000,0.0000000,0.0000040,0.0000000,0.0000000,0.0000000,0.0000203,0.0000000,0.0000000,0.0000040,0.0000000,0.0000000,0.0000000,0.0000203,0.0000000,0.0000000,0.0000040
365.9707500,,1.0199800,-0.9991128,0.0420736,-0.0011820,0.0014314,,,,-0.0155216,0.0013065,-0.0000349,0.2135455,4.8159142,-15.9049225,-0.0000308,0.0000026,-0.0000001,0.1019980,0.0001987,0.0000000,0.0000000,0.0000199,0.0000000,0.0000000,0.0000000,0.0001987,0.0000000,0.0000000,0.0000199,0.0000000,0.0000000,0.0000000,0.0001987,0.0000000,0.0000000,0.0000199,0.0000199,0.0000000,0.0000000,0.0000040,0.0000000,0.0000000,0.0000000,0.0000199,0.0000000,0.0000000,0.0000040,0.0000000,0.0000000,0.0000000,0.0000199,0.0000000,0.0000000,0.0000040
365.9839770,0.9999500,,-0.9991128,0.0420736,-0.0011592,0.0014449,-0.0016298,0.0142090,-0.0114209,,,,0.2135455,4.8159142,-15.9049225,0.0000000,0.0000000,0.0000000,0.0199990,0.0001995,0.0000000,0.0000000,0.0000199,0.0000000,0.0000000,0.0000000,0.0001995,0.0000000,0.0000000,0.0000199,0.0000000,0.0000000,0.0000000,0.0001995,0.0000000,0.0000000,0.0000199,0.0000199,0.0000000,0.0000000,0.0000040,0.0000000,0.0000000,0.0000000,0.0000199,0.0000000,0.0000000,0.0000040,0.0000000,0.0000000,0.0000000,0.0000199,0.0000000,0.0000000,0.0000040
365.9966630,1.0501001,,-0.9991128,0.0420736,-0.0011427,0.0014088,-0.0062699,0.0002228,-0.0091284,,,,0.2135455,4.8159142,-15.9049225,0.0000000,0.0000000,0.0000000,0.0210020,0.0002004,0.0000000,0.0000000,0.0000200,0.0000000,0.0000000,0.0000000,0.0002004,0.0000000,0.0000000,0.0000200,0.0000000,0.0000000,0.0000000,0.0002004,0.0000000,0.0000000,0.0000200,0.0000200,0.0000000,0.0000000,0.0000040,0.0000000,0.0000000,0.0000000,0.0000200,0.0000000,0.0000000,0.0000040,0.0000000,0.0000000,0.0000000,0.0000200,0.0000000,0.0000000,0.0000040
366.0168070,1.0001000,,-0.9991128,0.0420736,-0.0011562,0.0013964,-0.0020440,0.0003250,-0.0030994,,,,0.2135455,4.8159142,-15.9049225,0.0000000,0.0000000,0.0000000,0.0200020,0.0002012,0.0000000,0.0000000,0.0000201,0.0000000,0.0000000,0.0000000,0.0002012,0.0000000,0.0000000,0.0000201,0.0000000,0.0000000,0.0000000,0.0002012,0.0000000,0.0000000,0.0000201,0.0000201,0.0000000,0.0000000,0.0000040,0.0000000,0.0000000,0.0000000,0.0000201,0.0000000,0.0000000,0.0000040,0.0000000,0.0000000,0.0000000,0.0000201,0.0000000,0.0000000,0.0000040
366.0375600,1.0495000,,-0.9991129,0.0420735,-0.0011654,0.0013651,-0.0006710,-0.0113884,-0.0057001,,,,0.2135455,4.8159142,-15.9049225,0.0000000,0.0000000,0.0000000,0.0209900,0.0002020,0.0000000,0.0000000,0.0000202,0.0000000,0.0000000,0.0000000,0.0002020,0.0000000,0.0000000,0.0000202,0.0000000,0.0000000,0.0000000,0.0002020,0.0000000,0.0000000,0.0000202,0.0000202,0.0000000,0.0000000,0.0000040,0.0000000,0.0000000,0.0000000,0.0000202,0.0000000,0.0000000,0.0000040,0.0000000,0.0000000,0.0000000,0.0000202,0.0000000,0.0000000,0.0000040
366.0589850,1.0503500,,-0.9991130,0.0420734,-0.0011781,0.0012852,-0.0056227,-0.0129803,-0.0001645,,,,0.2135455,4.8159142,-15.9049225,0.0000000,0.0000000,0.0000000,0.0210070,0.0002029,0.0000000,0.0000000,0.0000203,0.0000000,0.0000000,0.0000000,0.0002029,0.0000000,0.0000000,0.0000203,0.0000000,0.0000000,0.0000000,0.0002029,0.0000000,0.0000000,0.0000203,0.0000203,0.0000000,0.0000000,0.0000040,0.0000000,0.0000000,0.0000000,0.0000203,0.0000000,0.0000000,0.0000040,0.0000000,0.0000000,0.0000000,0.0000203,0.0000000,0.0000000,0.0000040
366.0750380,,1.0200900,-0.9991130,0.0420734,-0.0011781,0.0012852,,,,-0.0235640,0.0019881,-0.0000531,0.2130770,4.8159537,-15.9049234,-0.0000468,0.0000039,-0.0000001,0.1020090,0.0001988,0.0000000,0.0000000,0.0000199,0.0000000,0.0000000,0.0000000,0.0001988,0.0000000,0.0000000,0.0000199,0.0000000,0.0000000,0.0000000,0.0001988,0.0000000,0.0000000,0.0000199,0.0000199,0.0000000,0.0000000,0.0000040,0.0000000,0.0000000,0.0000000,0.0000199,0.0000000,0.0000000,0.0000040,0.0000000,0.0000000,0.0000000,0.0000199,0.0000000,0.0000000,0.0000040
