t,predict_cpu,update_cpu,quat_x,quat_y,quat_z,quat_w,accel_x,accel_y,accel_z,of_x,of_y,of_z,x_x,x_y,x_z,x_vx,x_vy,x_vz,dt,P_0,P_1,P_2,P_3,P_4,P_5,P_6,P_7,P_8,P_9,P_10,P_11,P_12,P_13,P_14,P_15,P_16,P_17,P_18,P_19,P_20,P_21,P_22,P_23,P_24,P_25,P_26,P_27,P_28,P_29,P_30,P_31,P_32,P_33,P_34,P_35
109.3249940,1.1499000,,-0.9311883,-0.3645304,-0.0004351,0.0023585,-0.0052652,0.0072332,0.0009217,,,,1.6842620,-4.2612839,-13.9082289,0.0000000,0.0000000,0.0000000,0.0229980,0.0002011,0.0000000,0.0000000,0.0000201,0.0000000,0.0000000,0.0000000,0.0002011,0.0000000,0.0000000,0.0000201,0.0000000,0.0000000,0.0000000,0.0002011,0.0000000,0.0000000,0.0000201,0.0000201,0.0000000,0.0000000,0.0000040,0.0000000,0.0000000,0.0000000,0.0000201,0.0000000,0.0000000,0.0000040,0.0000000,0.0000000,0.0000000,0.0000201,0.0000000,0.0000000,0.0000040
109.3449750,1.0000501,,-0.9311883,-0.3645305,-0.0004643,0.0023525,0.0046001,0.0009845,-0.0002716,,,,1.6842620,-4.2612839,-13.9082289,0.0000000,0.0000000,0.0000000,0.0200010,0.0002019,0.0000000,0.0000000,0.0000202,0.0000000,0.0000000,0.0000000,0.0002019,0.0000000,0.0000000,0.0000202,0.0000000,0.0000000,0.0000000,0.0002019,0.0000000,0.0000000,0.0000202,0.0000202,0.0000000,0.0000000,0.0000040,0.0000000,0.0000000,0.0000000,0.0000202,0.0000000,0.0000000,0.0000040,0.0000000,0.0000000,0.0000000,0.0000202,0.0000000,0.0000000,0.0000040
109.3658690,1.0501001,,-0.9311883,-0.3645306,-0.0004684,0.0023295,-0.0016596,0.0019800,-0.0011123,,,,1.6842620,-4.2612839,-13.9082289,0.0000000,0.0000000,0.0000000,0.0210020,0.0002027,0.0000000,0.0000000,0.0000202,0.0000000,0.0000000,0.0000000,0.0002027,0.0000000,0.0000000,0.0000202,0.0000000,0.0000000,0.0000000,0.0002027,0.0000000,0.0000000,0.0000202,0.0000202,0.0000000,0.0000000,0.0000040,0.0000000,0.0000000,0.0000000,0.0000202,0.0000000,0.0000000,0.0000040,0.0000000,0.0000000,0.0000000,0.0000202,0.0000000,0.0000000,0.0000040
109.3874000,,1.0099100,-0.9311883,-0.3645306,-0.0004833,0.0023168,,,,0.0000000,0.0000000,0.0000000,1.6842620,-4.2612839,-13.9082289,0.0000000,0.0000000,0.0000000,0.1009910,0.0001987,0.0000000,0.0000000,0.0000198,0.0000000,0.0000000,0.0000000,0.0001987,0.0000000,0.0000000,0.0000198,0.0000000,0.0000000,0.0000000,0.0001987,0.0000000,0.0000000,0.0000198,0.0000198,0.0000000,0.0000000,0.0000040,0.0000000,0.0000000,0.0000000,0.0000198,0.0000000,0.0000000,0.0000040,0.0000000,0.0000000,0.0000000,0.0000198,0.0000000,0.0000000,0.0000040
109.4006810,0.9999000,,-0.9311883,-0.3645306,-0.0004833,0.0023168,0.0042209,0.0027142,-0.0008003,,,,1.6842620,-4.2612839,-13.9082289,0.0000000,0.0000000,0.0000000,0.0199980,0.0001995,0.0000000,0.0000000,0.0000199,0.0000000,0.0000000,0.0000000,0.0001995,0.0000000,0.0000000,0.0000199,0.0000000,0.0000000,0.0000000,0.0001995,0.0000000,0.0000000,0.0000199,0.0000199,0.0000000,0.0000000,0.0000040,0.0000000,0.0000000,0.0000000,0.0000199,0.0000000,0.0000000,0.0000040,0.0000000,0.0000000,0.0000000,0.0000199,0.0000000,0.0000000,0.0000040
109.4152540,1.3999500,,-0.9311883,-0.3645306,-0.0004673,0.0023262,-0.0001326,-0.0019998,-0.0011326,,,,1.6842620,-4.2612839,-13.9082289,0.0000000,0.0000000,0.0000000,0.0279990,0.0002006,0.0000000,0.0000000,0.0000200,0.0000000,0.0000000,0.0000000,0.0002006,0.0000000,0.0000000,0.0000200,0.0000000,0.0000000,0.0000000,0.0002006,0.0000000,0.0000000,0.0000200,0.0000200,0.0000000,0.0000000,0.0000040,0.0000000,0.0000000,0.0000000,0.0000200,0.0000000,0.0000000,0.0000040,0.0000000,0.0000000,0.0000000,0.0000200,0.0000000,0.0000000,0.0000040
109.4341220,1.0001501,,-0.9311884,-0.3645306,-0.0004499,0.0023212,-0.0025306,0.0010066,0.0011427,,,,1.6842620,-4.2612839,-13.9082289,0.0000000,0.0000000,0.0000000,0.0200030,0.0002014,0.0000000,0.0000000,0.0000201,0.0000000,0.0000000,0.0000000,0.0002014,0.0000000,0.0000000,0.0000201,0.0000000,0.0000000,0.0000000,0.0002014,0.0000000,0.0000000,0.0000201,0.0000201,0.0000000,0.0000000,0.0000040,0.0000000,0.0000000,0.0000000,0.0000201,0.0000000,0.0000000,0.0000040,0.0000000,0.0000000,0.0000000,0.0000201,0.0000000,0.0000000,0.0000040
109.4539640,1.0000000,,-0.9311885,-0.3645305,-0.0004185,0.0023124,0.0021756,-0.0011523,0.0032569,,,,1.6842620,-4.2612839,-13.9082289,0.0000000,0.0000000,0.0000000,0.0200000,0.0002022,0.0000000,0.0000000,0.0000202,0.0000000,0.0000000,0.0000000,0.0002022,0.0000000,0.0000000,0.0000202,0.0000000,0.0000000,0.0000000,0.0002022,0.0000000,0.0000000,0.0000202,0.0000202,0.0000000,0.0000000,0.0000040,0.0000000,0.0000000,0.0000000,0.0000202,0.0000000,0.0000000,0.0000040,0.0000000,0.0000000,0.0000000,0.0000202,0.0000000,0.0000000,0.0000040
109.4737920,1.0000000,,-0.9311885,-0.3645304,-0.0003908,0.0023133,0.0011336,-0.0009881,0.0028492,,,,1.6842620,-4.2612839,-13.9082289,0.0000000,0.0000000,0.0000000,0.0200000,0.0002030,0.0000000,0.0000000,0.0000203,0.0000000,0.0000000,0.0000000,0.0002030,0.0000000,0.0000000,0.0000203,0.0000000,0.0000000,0.0000000,0.0002030,0.0000000,0.0000000,0.0000203,0.0000203,0.0000000,0.0000000,0.0000040,0.0000000,0.0000000,0.0000000,0.0000203,0.0000000,0.0000000,0.0000040,0.0000000,0.0000000,0.0000000,0.0000203,0.0000000,0.0000000,0.0000040
109.4891590,,1.0000199,-0.9311885,-0.3645304,-0.0003908,0.0023133,,,,0.0000000,0.0000000,0.0000000,1.6842620,-4.2612839,-13.9082289,0.0000000,0.0000000,0.0000000,0.1000020,0.0001990,0.0000000,0.0000000,0.0000199,0.0000000,0.0000000,0.0000000,0.0001990,0.0000000,0.0000000,0.0000199,0.0000000,0.0000000,0.0000000,0.0001990,0.0000000,0.0000000,0.0000199,0.0000199,0.0000000,0.0000000,0.0000040,0.0000000,0.0000000,0.0000000,0.0000199,0.0000000,0.0000000,0.0000040,0.0000000,0.0000000,0.0000000,0.0000199,0.0000000,0.0000000,0.0000040
109.5037060,1.1003000,,-0.9311886,-0.3645304,-0.0003528,0.0023034,-0.0005547,-0.0004254,0.0019129,,,,1.6842620,-4.2612839,-13.9082289,0.0000000,0.0000000,0.0000000,0.0220060,0.0001999,0.0000000,0.0000000,0.0000200,0.0000000,0.0000000,0.0000000,0.0001999,0.0000000,0.0000000,0.0000200,0.0000000,0.0000000,0.0000000,0.0001999,0.0000000,0.0000000,0.0000200,0.0000200,0.0000000,0.0000000,0.0000040,0.0000000,0.0000000,0.0000000,0.0000200,0.0000000,0.0000000,0.0000040,0.0000000,0.0000000,0.0000000,0.0000200,0.0000000,0.0000000,0.0000040
109.5170140,1.0496000,,-0.9311886,-0.3645303,-0.0003333,0.0023154,-0.0058087,0.0016031,0.0038861,,,,1.6842620,-4.2612839,-13.9082289,0.0000000,0.0000000,0.0000000,0.0209920,0.0002007,0.0000000,0.0000000,0.0000200,0.0000000,0.0000000,0.0000000,0.0002007,0.0000000,0.0000000,0.0000200,0.0000000,0.0000000,0.0000000,0.0002007,0.0000000,0.0000000,0.0000200,0.0000200,0.0000000,0.0000000,0.0000040,0.0000000,0.0000000,0.0000000,0.0000200,0.0000000,0.0000000,0.0000040,0.0000000,0.0000000,0.0000000,0.0000200,0.0000000,0.0000000,0.0000040
109.5380270,1.0505000,,-0.9311886,-0.3645303,-0.0003326,0.0023169,-0.0008826,0.0040669,0.0075583,,,,1.6842620,-4.2612839,-13.9082289,0.0000000,0.0000000,0.0000000,0.0210100,0.0002015,0.0000000,0.0000000,0.0000201,0.0000000,0.0000000,0.0000000,0.0002015,0.0000000,0.0000000,0.0000201,0.0000000,0.0000000,0.0000000,0.0002015,0.0000000,0.0000000,0.0000201,0.0000201,0.0000000,0.0000000,0.0000040,0.0000000,0.0000000,0.0000000,0.0000201,0.0000000,0.0000000,0.0000040,0.0000000,0.0000000,0.0000000,0.0000201,0.0000000,0.0000000,0.0000040
109.5581340,0.9999000,,-0.9311886,-0.3645304,-0.0003406,0.0023105,0.0001080,0.0016138,0.0008495,,,,1.6842620,-4.2612839,-13.9082289,0.0000000,0.0000000,0.0000000,0.0199980,0.0002023,0.0000000,0.0000000,0.0000202,0.0000000,0.0000000,0.0000000,0.0002023,0.0000000,0.0000000,0.0000202,0.0000000,0.0000000,0.0000000,0.0002023,0.0000000,0.0000000,0.0000202,0.0000202,0.0000000,0.0000000,0.0000040,0.0000000,0.0000000,0.0000000,0.0000202,0.0000000,0.0000000,0.0000040,0.0000000,0.0000000,0.0000000,0.0000202,0.0000000,0.0000000,0.0000040
109.5779360,1.0000501,,-0.9311886,-0.3645304,-0.0003412,0.0023107,0.0028006,-0.0032672,-0.0000636,,,,1.6842620,-4.2612839,-13.9082289,0.0000000,0.0000000,0.0000000,0.0200010,0.0002031,0.0000000,0.0000000,0.0000203,0.0000000,0.0000000,0.0000000,0.0002031,0.0000000,0.0000000,0.0000203,0.0000000,0.0000000,0.0000000,0.0002031,0.0000000,0.0000000,0.0000203,0.0000203,0.0000000,0.0000000,0.0000040,0.0000000,0.0000000,0.0000000,0.0000203,0.0000000,0.0000000,0.0000040,0.0000000,0.0000000,0.0000000,0.0000203,0.0000000,0.0000000,0.0000040
109.5939540,,1.0199900,-0.9311886,-0.3645304,-0.0003412,0.0023107,,,,0.0000000,0.0000000,0.0000000,1.6842620,-4.2612839,-13.9082289,0.0000000,0.0000000,0.0000000,0.1019990,0.0001991,0.0000000,0.0000000,0.0000199,0.0000000,0.0000000,0.0000000,0.0001991,0.0000000,0.0000000,0.0000199,0.0000000,0.0000000,0.0000000,0.0001991,0.0000000,0.0000000,0.0000199,0.0000199,0.0000000,0.0000000,0.0000040,0.0000000,0.0000000,0.0000000,0.0000199,0.0000000,0.0000000,0.0000040,0.0000000,0.0000000,0.0000000,0.0000199,0.0000000,0.0000000,0.0000040
109.6076040,1.0000501,,-0.9311885,-0.3645304,-0.0003489,0.0023335,0.0043605,-0.0012750,0.0028979,,,,1.6842620,-4.2612839,-13.9082289,0.0000000,0.0000000,0.0000000,0.0200010,0.0001999,0.0000000,0.0000000,0.0000200,0.0000000,0.0000000,0.0000000,0.0001999,0.0000000,0.0000000,0.0000200,0.0000000,0.0000000,0.0000000,0.0001999,0.0000000,0.0000000,0.0000200,0.0000200,0.0000000,0.0000000,0.0000040,0.0000000,0.0000000,0.0000000,0.0000200,0.0000000,0.0000000,0.0000040,0.0000000,0.0000000,0.0000000,0.0000200,0.0000000,0.0000000,0.0000040
109.6206590,1.1494499,,-0.9311885,-0.3645304,-0.0003592,0.0023323,0.0061170,0.0026202,0.0007165,,,,1.6842620,-4.2612839,-13.9082289,0.0000000,0.0000000,0.0000000,0.0229890,0.0002008,0.0000000,0.0000000,0.0000201,0.0000000,0.0000000,0.0000000,0.0002008,0.0000000,0.0000000,0.0000201,0.0000000,0.0000000,0.0000000,0.0002008,0.0000000,0.0000000,0.0000201,0.0000201,0.0000000,0.0000000,0.0000040,0.0000000,0.0000000,0.0000000,0.0000201,0.0000000,0.0000000,0.0000040,0.0000000,0.0000000,0.0000000,0.0000201,0.0000000,0.0000000,0.0000040
109.6417620,1.0501500,,-0.9311885,-0.3645303,-0.0003387,0.0023396,-0.0007714,0.0026529,0.0042645,,,,1.6842620,-4.2612839,-13.9082289,0.0000000,0.0000000,0.0000000,0.0210030,0.0002017,0.0000000,0.0000000,0.0000201,0.0000000,0.0000000,0.0000000,0.0002017,0.0000000,0.0000000,0.0000201,0.0000000,0.0000000,0.0000000,0.0002017,0.0000000,0.0000000,0.0000201,0.0000201,0.0000000,0.0000000,0.0000040,0.0000000,0.0000000,0.0000000,0.0000201,0.0000000,0.0000000,0.0000040,0.0000000,0.0000000,0.0000000,0.0000201,0.0000000,0.0000000,0.0000040
109.6642600,1.0503500,,-0.9311885,-0.3645304,-0.0003373,0.0023238,-0.0000729,0.0040883,0.0013998,,,,1.6842620,-4.2612839,-13.9082289,0.0000000,0.0000000,0.0000000,0.0210070,0.0002025,0.0000000,0.0000000,0.0000202,0.0000000,0.0000000,0.0000000,0.0002025,0.0000000,0.0000000,0.0000202,0.0000000,0.0000000,0.0000000,0.0002025,0.0000000,0.0000000,0.0000202,0.0000202,0.0000000,0.0000000,0.0000040,0.0000000,0.0000000,0.0000000,0.0000202,0.0000000,0.0000000,0.0000040,0.0000000,0.0000000,0.0000000,0.0000202,0.0000000,0.0000000,0.0000040
109.6827970,1.0002999,,-0.9311886,-0.3645303,-0.0003231,0.0023228,-0.0016539,0.0038523,-0.0046712,,,,1.6842620,-4.2612839,-13.9082289,0.0000000,0.0000000,0.0000000,0.0200060,0.0002033,0.0000000,0.0000000,0.0000203,0.0000000,0.0000000,0.0000000,0.0002033,0.0000000,0.0000000,0.0000203,0.0000000,0.0000000,0.0000000,0.0002033,0.0000000,0.0000000,0.0000203,0.0000203,0.0000000,0.0000000,0.0000040,0.0000000,0.0000000,0.0000000,0.0000203,0.0000000,0.0000000,0.0000040,0.0000000,0.0000000,0.0000000,0.0000203,0.0000000,0.0000000,0.0000040
109.6989550,,1.0000600,-0.9311886,-0.3645303,-0.0003231,0.0023228,,,,0.0000000,0.0000000,0.0000000,1.6842620,-4.2612839,-13.9082289,0.0000000,0.0000000,0.0000000,0.1000060,0.0001993,0.0000000,0.0000000,0.0000199,0.0000000,0.0000000,0.0000000,0.0001993,0.0000000,0.0000000,0.0000199,0.0000000,0.0000000,0.0000000,0.0001993,0.0000000,0.0000000,0.0000199,0.0000199,0.0000000,0.0000000,0.0000040,0.0000000,0.0000000,0.0000000,0.0000199,0.0000000,0.0000000,0.0000040,0.0000000,0.0000000,0.0000000,0.0000199,0.0000000,0.0000000,0.0000040
109.7126860,0.9997000,,-0.9311886,-0.3645304,-0.0003379,0.0023174,0.0014237,0.0022466,-0.0052653,,,,1.6842620,-4.2612839,-13.9082289,0.0000000,0.0000000,0.0000000,0.0199940,0.0002001,0.0000000,0.0000000,0.0000200,0.0000000,0.0000000,0.0000000,0.0002001,0.0000000,0.0000000,0.0000200,0.0000000,0.0000000,0.0000000,0.0002001,0.0000000,0.0000000,0.0000200,0.0000200,0.0000000,0.0000000,0.0000040,0.0000000,0.0000000,0.0000000,0.0000200,0.0000000,0.0000000,0.0000040,0.0000000,0.0000000,0.0000000,0.0000200,0.0000000,0.0000000,0.0000040
109.7257730,1.1495000,,-0.9311886,-0.3645304,-0.0003456,0.0023081,0.0002846,-0.0049192,-0.0045858,,,,1.6842620,-4.2612839,-13.9082289,0.0000000,0.0000000,0.0000000,0.0229900,0.0002010,0.0000000,0.0000000,0.0000201,0.0000000,0.0000000,0.0000000,0.0002010,0.0000000,0.0000000,0.0000201,0.0000000,0.0000000,0.0000000,0.0002010,0.0000000,0.0000000,0.0000201,0.0000201,0.0000000,0.0000000,0.0000040,0.0000000,0.0000000,0.0000000,0.0000201,0.0000000,0.0000000,0.0000040,0.0000000,0.0000000,0.0000000,0.0000201,0.0000000,0.0000000,0.0000040
109.7468210,1.0501500,,-0.9311886,-0.3645304,-0.0003523,0.0023159,0.0023854,-0.0067702,-0.0020487,,,,1.6842620,-4.2612839,-13.9082289,0.0000000,0.0000000,0.0000000,0.0210030,0.0002018,0.0000000,0.0000000,0.0000202,0.0000000,0.0000000,0.0000000,0.0002018,0.0000000,0.0000000,0.0000202,0.0000000,0.0000000,0.0000000,0.0002018,0.0000000,0.0000000,0.0000202,0.0000202,0.0000000,0.0000000,0.0000040,0.0000000,0.0000000,0.0000000,0.0000202,0.0000000,0.0000000,0.0000040,0.0000000,0.0000000,0.0000000,0.0000202,0.0000000,0.0000000,0.0000040
109.7693150,1.0502501,,-0.9311885,-0.3645304,-0.0003785,0.0023406,0.0077692,-0.0096259,-0.0037099,,,,1.6842620,-4.2612839,-13.9082289,0.0000000,0.0000000,0.0000000,0.0210050,0.0002027,0.0000000,0.0000000,0.0000202,0.0000000,0.0000000,0.0000000,0.0002027,0.0000000,0.0000000,0.0000202,0.0000000,0.0000000,0.0000000,0.0002027,0.0000000,0.0000000,0.0000202,0.0000202,0.0000000,0.0000000,0.0000040,0.0000000,0.0000000,0.0000000,0.0000202,0.0000000,0.0000000,0.0000040,0.0000000,0.0000000,0.0000000,0.0000202,0.0000000,0.0000000,0.0000040
109.7903980,,1.0099800,-0.9311885,-0.3645304,-0.0003856,0.0023466,,,,0.0000000,0.0000000,0.0000000,1.6842620,-4.2612839,-13.9082289,0.0000000,0.0000000,0.0000000,0.1009980,0.0001986,0.0000000,0.0000000,0.0000198,0.0000000,0.0000000,0.0000000,0.0001986,0.0000000,0.0000000,0.0000198,0.0000000,0.0000000,0.0000000,0.0001986,0.0000000,0.0000000,0.0000198,0.0000198,0.0000000,0.0000000,0.0000040,0.0000000,0.0000000,0.0000000,0.0000198,0.0000000,0.0000000,0.0000040,0.0000000,0.0000000,0.0000000,0.0000198,0.0000000,0.0000000,0.0000040
109.8036810,1.0000501,,-0.9311885,-0.3645304,-0.0003856,0.0023466,0.0055936,-0.0052021,-0.0006343,,,,1.6842620,-4.2612839,-13.9082289,0.0000000,0.0000000,0.0000000,0.0200010,0.0001994,0.0000000,0.0000000,0.0000199,0.0000000,0.0000000,0.0000000,0.0001994,0.0000000,0.0000000,0.0000199,0.0000000,0.0000000,0.0000000,0.0001994,0.0000000,0.0000000,0.0000199,0.0000199,0.0000000,0.0000000,0.0000040,0.0000000,0.0000000,0.0000000,0.0000199,0.0000000,0.0000000,0.0000040,0.0000000,0.0000000,0.0000000,0.0000199,0.0000000,0.0000000,0.0000040
109.8170690,1.4496500,,-0.9311885,-0.3645304,-0.0003637,0.0023381,-0.0083803,-0.0059275,-0.0051999,,,,1.6842620,-4.2612839,-13.9082289,0.0000000,0.0000000,0.0000000,0.0289930,0.0002006,0.0000000,0.0000000,0.0000200,0.0000000,0.0000000,0.0000000,0.0002006,0.0000000,0.0000000,0.0000200,0.0000000,0.0000000,0.0000000,0.0002006,0.0000000,0.0000000,0.0000200,0.0000200,0.0000000,0.0000000,0.0000040,0.0000000,0.0000000,0.0000000,0.0000200,0.0000000,0.0000000,0.0000040,0.0000000,0.0000000,0.0000000,0.0000200,0.0000000,0.0000000,0.0000040
109.8370640,1.0002999,,-0.9311885,-0.3645304,-0.0003587,0.0023564,-0.0044038,-0.0052754,-0.0004027,,,,1.6842620,-4.2612839,-13.9082289,0.0000000,0.0000000,0.0000000,0.0200060,0.0002014,0.0000000,0.0000000,0.0000201,0.0000000,0.0000000,0.0000000,0.0002014,0.0000000,0.0000000,0.0000201,0.0000000,0.0000000,0.0000000,0.0002014,0.0000000,0.0000000,0.0000201,0.0000201,0.0000000,0.0000000,0.0000040,0.0000000,0.0000000,0.0000000,0.0000201,0.0000000,0.0000000,0.0000040,0.0000000,0.0000000,0.0000000,0.0000201,0.0000000,0.0000000,0.0000040
109.8582640,0.9999500,,-0.9311884,-0.3645303,-0.0003447,0.0023920,-0.0011948,-0.0073298,-0.0019103,,,,1.6842620,-4.2612839,-13.9082289,0.0000000,0.0000000,0.0000000,0.0199990,0.0002022,0.0000000,0.0000000,0.0000202,0.0000000,0.0000000,0.0000000,0.0002022,0.0000000,0.0000000,0.0000202,0.0000000,0.0000000,0.0000000,0.0002022,0.0000000,0.0000000,0.0000202,0.0000202,0.0000000,0.0000000,0.0000040,0.0000000,0.0000000,0.0000000,0.0000202,0.0000000,0.0000000,0.0000040,0.0000000,0.0000000,0.0000000,0.0000202,0.0000000,0.0000000,0.0000040
109.8771290,1.0001000,,-0.9311884,-0.3645303,-0.0003218,0.0024040,-0.0032143,-0.0086011,-0.0065704,,,,1.6842620,-4.2612839,-13.9082289,0.0000000,0.0000000,0.0000000,0.0200020,0.0002030,0.0000000,0.0000000,0.0000203,0.0000000,0.0000000,0.0000000,0.0002030,0.0000000,0.0000000,0.0000203,0.0000000,0.0000000,0.0000000,0.0002030,0.0000000,0.0000000,0.0000203,0.0000203,0.0000000,0.0000000,0.0000040,0.0000000,0.0000000,0.0000000,0.0000203,0.0000000,0.0000000,0.0000040,0.0000000,0.0000000,0.0000000,0.0000203,0.0000000,0.0000000,0.0000040
109.8953580,,0.9999800,-0.9311884,-0.3645303,-0.0003218,0.0024072,,,,0.0000000,0.0000000,0.0000000,1.6842620,-4.2612839,-13.9082289,0.0000000,0.0000000,0.0000000,0.0999980,0.0001990,0.0000000,0.0000000,0.0000199,0.0000000,0.0000000,0.0000000,0.0001990,0.0000000,0.0000000,0.0000199,0.0000000,0.0000000,0.0000000,0.0001990,0.0000000,0.0000000,0.0000199,0.0000199,0.0000000,0.0000000,0.0000040,0.0000000,0.0000000,0.0000000,0.0000199,0.0000000,0.0000000,0.0000040,0.0000000,0.0000000,0.0000000,0.0000199,0.0000000,0.0000000,0.0000040
109.9086780,1.0004500,,-0.9311884,-0.3645302,-0.0003134,0.0024072,-0.0049641,-0.0053382,-0.0035293,,,,1.6842620,-4.2612839,-13.9082289,0.0000000,0.0000000,0.0000000,0.0200090,0.0001998,0.0000000,0.0000000,0.0000200,0.0000000,0.0000000,0.0000000,0.0001998,0.0000000,0.0000000,0.0000200,0.0000000,0.0000000,0.0000000,0.0001998,0.0000000,0.0000000,0.0000200,0.0000200,0.0000000,0.0000000,0.0000040,0.0000000,0.0000000,0.0000000,0.0000200,0.0000000,0.0000000,0.0000040,0.0000000,0.0000000,0.0000000,0.0000200,0.0000000,0.0000000,0.0000040
109.9220910,1.2491500,,-0.9311883,-0.3645302,-0.0002999,0.0024244,-0.0014368,-0.0048892,-0.0037178,,,,1.6842620,-4.2612839,-13.9082289,0.0000000,0.0000000,0.0000000,0.0249830,0.0002008,0.0000000,0.0000000,0.0000201,0.0000000,0.0000000,0.0000000,0.0002008,0.0000000,0.0000000,0.0000201,0.0000000,0.0000000,0.0000000,0.0002008,0.0000000,0.0000000,0.0000201,0.0000201,0.0000000,0.0000000,0.0000040,0.0000000,0.0000000,0.0000000,0.0000201,0.0000000,0.0000000,0.0000040,0.0000000,0.0000000,0.0000000,0.0000201,0.0000000,0.0000000,0.0000040
109.9419710,1.0003500,,-0.9311883,-0.3645302,-0.0002934,0.0024274,0.0008151,-0.0019945,-0.0050327,,,,1.6842620,-4.2612839,-13.9082289,0.0000000,0.0000000,0.0000000,0.0200070,0.0002016,0.0000000,0.0000000,0.0000201,0.0000000,0.0000000,0.0000000,0.0002016,0.0000000,0.0000000,0.0000201,0.0000000,0.0000000,0.0000000,0.0002016,0.0000000,0.0000000,0.0000201,0.0000201,0.0000000,0.0000000,0.0000040,0.0000000,0.0000000,0.0000000,0.0000201,0.0000000,0.0000000,0.0000040,0.0000000,0.0000000,0.0000000,0.0000201,0.0000000,0.0000000,0.0000040
109.9632340,0.9998000,,-0.9311883,-0.3645301,-0.0002802,0.0024332,-0.0024382,-0.0002877,-0.0091082,,,,1.6842620,-4.2612839,-13.9082289,0.0000000,0.0000000,0.0000000,0.0199960,0.0002024,0.0000000,0.0000000,0.0000202,0.0000000,0.0000000,0.0000000,0.0002024,0.0000000,0.0000000,0.0000202,0.0000000,0.0000000,0.0000000,0.0002024,0.0000000,0.0000000,0.0000202,0.0000202,0.0000000,0.0000000,0.0000040,0.0000000,0.0000000,0.0000000,0.0000202,0.0000000,0.0000000,0.0000040,0.0000000,0.0000000,0.0000000,0.0000202,0.0000000,0.0000000,0.0000040
109.9820390,1.0002501,,-0.9311883,-0.3645301,-0.0002468,0.0024438,-0.0057281,-0.0015934,0.0008170,,,,1.6842620,-4.2612839,-13.9082289,0.0000000,0.0000000,0.0000000,0.0200050,0.0002032,0.0000000,0.0000000,0.0000203,0.0000000,0.0000000,0.0000000,0.0002032,0.0000000,0.0000000,0.0000203,0.0000000,0.0000000,0.0000000,0.0002032,0.0000000,0.0000000,0.0000203,0.0000203,0.0000000,0.0000000,0.0000040,0.0000000,0.0000000,0.0000000,0.0000203,0.0000000,0.0000000,0.0000040,0.0000000,0.0000000,0.0000000,0.0000203,0.0000000,0.0000000,0.0000040
109.9979430,,1.0199800,-0.9311883,-0.3645301,-0.0002468,0.0024557,,,,0.0000000,0.0000000,0.0000000,1.6842620,-4.2612839,-13.9082289,0.0000000,0.0000000,0.0000000,0.1019980,0.0001991,0.0000000,0.0000000,0.0000199,0.0000000,0.0000000,0.0000000,0.0001991,0.0000000,0.0000000,0.0000199,0.0000000,0.0000000,0.0000000,0.0001991,0.0000000,0.0000000,0.0000199,0.0000199,0.0000000,0.0000000,0.0000040,0.0000000,0.0000000,0.0000000,0.0000199,0.0000000,0.0000000,0.0000040,0.0000000,0.0000000,0.0000000,0.0000199,0.0000000,0.0000000,0.0000040
110.0115720,1.0001000,,-0.9311883,-0.3645300,-0.0002235,0.0024557,-0.0073654,-0.0073580,-0.0056950,,,,1.6842620,-4.2612839,-13.9082289,0.0000000,0.0000000,0.0000000,0.0200020,0.0001999,0.0000000,0.0000000,0.0000200,0.0000000,0.0000000,0.0000000,0.0001999,0.0000000,0.0000000,0.0000200,0.0000000,0.0000000,0.0000000,0.0001999,0.0000000,0.0000000,0.0000200,0.0000200,0.0000000,0.0000000,0.0000040,0.0000000,0.0000000,0.0000000,0.0000200,0.0000000,0.0000000,0.0000040,0.0000000,0.0000000,0.0000000,0.0000200,0.0000000,0.0000000,0.0000040
110.0261940,1.1494499,,-0.9311884,-0.3645299,-0.0001950,0.0024520,-0.0071693,-0.0026795,-0.0084627,,,,1.6842620,-4.2612839,-13.9082289,0.0000000,0.0000000,0.0000000,0.0229890,0.0002008,0.0000000,0.0000000,0.0000201,0.0000000,0.0000000,0.0000000,0.0002008,0.0000000,0.0000000,0.0000201,0.0000000,0.0000000,0.0000000,0.0002008,0.0000000,0.0000000,0.0000201,0.0000201,0.0000000,0.0000000,0.0000040,0.0000000,0.0000000,0.0000000,0.0000201,0.0000000,0.0000000,0.0000040,0.0000000,0.0000000,0.0000000,0.0000201,0.0000000,0.0000000,0.0000040
110.0449190,1.0000501,,-0.9311885,-0.3645299,-0.0001658,0.0024441,-0.0060642,-0.0003403,-0.0081376,,,,1.6842620,-4.2612839,-13.9082289,0.0000000,0.0000000,0.0000000,0.0200010,0.0002016,0.0000000,0.0000000,0.0000201,0.0000000,0.0000000,0.0000000,0.0002016,0.0000000,0.0000000,0.0000201,0.0000000,0.0000000,0.0000000,0.0002016,0.0000000,0.0000000,0.0000201,0.0000201,0.0000000,0.0000000,0.0000040,0.0000000,0.0000000,0.0000000,0.0000201,0.0000000,0.0000000,0.0000040,0.0000000,0.0000000,0.0000000,0.0000201,0.0000000,0.0000000,0.0000040
110.0649990,1.0007000,,-0.9311885,-0.3645298,-0.0001664,0.0024546,-0.0050615,-0.0030617,-0.0079751,,,,1.6842620,-4.2612839,-13.9082289,0.0000000,0.0000000,0.0000000,0.0200140,0.0002025,0.0000000,0.0000000,0.0000202,0.0000000,0.0000000,0.0000000,0.0002025,0.0000000,0.0000000,0.0000202,0.0000000,0.0000000,0.0000000,0.0002025,0.0000000,0.0000000,0.0000202,0.0000202,0.0000000,0.0000000,0.0000040,0.0000000,0.0000000,0.0000000,0.0000202,0.0000000,0.0000000,0.0000040,0.0000000,0.0000000,0.0000000,0.0000202,0.0000000,0.0000000,0.0000040
110.0850530,0.9995000,,-0.9311885,-0.3645298,-0.0001514,0.0024601,-0.0067269,-0.0075810,-0.0061848,,,,1.6842620,-4.2612839,-13.9082289,0.0000000,0.0000000,0.0000000,0.0199900,0.0002033,0.0000000,0.0000000,0.0000203,0.0000000,0.0000000,0.0000000,0.0002033,0.0000000,0.0000000,0.0000203,0.0000000,0.0000000,0.0000000,0.0002033,0.0000000,0.0000000,0.0000203,0.0000203,0.0000000,0.0000000,0.0000040,0.0000000,0.0000000,0.0000000,0.0000203,0.0000000,0.0000000,0.0000040,0.0000000,0.0000000,0.0000000,0.0000203,0.0000000,0.0000000,0.0000040
110.1024180,,1.0200499,-0.9311885,-0.3645298,-0.0001514,0.0024601,,,,0.0000000,0.0000000,0.0000000,1.6842620,-4.2612839,-13.9082289,0.0000000,0.0000000,0.0000000,0.1020050,0.0001992,0.0000000,0.0000000,0.0000199,0.0000000,0.0000000,0.0000000,0.0001992,0.0000000,0.0000000,0.0000199,0.0000000,0.0000000,0.0000000,0.0001992,0.0000000,0.0000000,0.0000199,0.0000199,0.0000000,0.0000000,0.0000040,0.0000000,0.0000000,0.0000000,0.0000199,0.0000000,0.0000000,0.0000040,0.0000000,0.0000000,0.0000000,0.0000199,0.0000000,0.0000000,0.0000040
110.1158360,1.0999000,,-0.9311885,-0.3645298,-0.0001211,0.0024607,-0.0038517,-0.0046984,0.0000814,,,,1.6842620,-4.2612839,-13.9082289,0.0000000,0.0000000,0.0000000,0.0219980,0.0002001,0.0000000,0.0000000,0.0000200,0.0000000,0.0000000,0.0000000,0.0002001,0.0000000,0.0000000,0.0000200,0.0000000,0.0000000,0.0000000,0.0002001,0.0000000,0.0000000,0.0000200,0.0000200,0.0000000,0.0000000,0.0000040,0.0000000,0.0000000,0.0000000,0.0000200,0.0000000,0.0000000,0.0000040,0.0000000,0.0000000,0.0000000,0.0000200,0.0000000,0.0000000,0.0000040
110.1288350,1.0998499,,-0.9311885,-0.3645297,-0.0000944,0.0024794,0.0024763,-0.0022424,0.0039470,,,,1.6842620,-4.2612839,-13.9082289,0.0000000,0.0000000,0.0000000,0.0219970,0.0002010,0.0000000,0.0000000,0.0000201,0.0000000,0.0000000,0.0000000,0.0002010,0.0000000,0.0000000,0.0000201,0.0000000,0.0000000,0.0000000,0.0002010,0.0000000,0.0000000,0.0000201,0.0000201,0.0000000,0.0000000,0.0000040,0.0000000,0.0000000,0.0000000,0.0000201,0.0000000,0.0000000,0.0000040,0.0000000,0.0000000,0.0000000,0.0000201,0.0000000,0.0000000,0.0000040
110.1503010,1.0000000,,-0.9311885,-0.3645296,-0.0000606,0.0024944,-0.0023858,-0.0022122,0.0019735,,,,1.6842620,-4.2612839,-13.9082289,0.0000000,0.0000000,0.0000000,0.0200000,0.0002018,0.0000000,0.0000000,0.0000202,0.0000000,0.0000000,0.0000000,0.0002018,0.0000000,0.0000000,0.0000202,0.0000000,0.0000000,0.0000000,0.0002018,0.0000000,0.0000000,0.0000202,0.0000202,0.0000000,0.0000000,0.0000040,0.0000000,0.0000000,0.0000000,0.0000202,0.0000000,0.0000000,0.0000040,0.0000000,0.0000000,0.0000000,0.0000202,0.0000000,0.0000000,0.0000040
110.1691090,1.0000501,,-0.9311886,-0.3645295,-0.0000191,0.0024772,-0.0086545,0.0026628,0.0061137,,,,1.6842620,-4.2612839,-13.9082289,0.0000000,0.0000000,0.0000000,0.0200010,0.0002026,0.0000000,0.0000000,0.0000202,0.0000000,0.0000000,0.0000000,0.0002026,0.0000000,0.0000000,0.0000202,0.0000000,0.0000000,0.0000000,0.0002026,0.0000000,0.0000000,0.0000202,0.0000202,0.0000000,0.0000000,0.0000040,0.0000000,0.0000000,0.0000000,0.0000202,0.0000000,0.0000000,0.0000040,0.0000000,0.0000000,0.0000000,0.0000202,0.0000000,0.0000000,0.0000040
110.1890500,1.0003999,,-0.9311886,-0.3645294,0.0000235,0.0024810,-0.0102934,-0.0012092,0.0018361,,,,1.6842620,-4.2612839,-13.9082289,0.0000000,0.0000000,0.0000000,0.0200080,0.0002034,0.0000000,0.0000000,0.0000203,0.0000000,0.0000000,0.0000000,0.0002034,0.0000000,0.0000000,0.0000203,0.0000000,0.0000000,0.0000000,0.0002034,0.0000000,0.0000000,0.0000203,0.0000203,0.0000000,0.0000000,0.0000040,0.0000000,0.0000000,0.0000000,0.0000203,0.0000000,0.0000000,0.0000040,0.0000000,0.0000000,0.0000000,0.0000203,0.0000000,0.0000000,0.0000040
110.2037570,,0.9999900,-0.9311886,-0.3645294,0.0000235,0.0024810,,,,0.0000000,0.0000000,0.0000000,1.6842620,-4.2612839,-13.9082289,0.0000000,0.0000000,0.0000000,0.0999990,0.0001993,0.0000000,0.0000000,0.0000199,0.0000000,0.0000000,0.0000000,0.0001993,0.0000000,0.0000000,0.0000199,0.0000000,0.0000000,0.0000000,0.0001993,0.0000000,0.0000000,0.0000199,0.0000199,0.0000000,0.0000000,0.0000040,0.0000000,0.0000000,0.0000000,0.0000199,0.0000000,0.0000000,0.0000040,0.0000000,0.0000000,0.0000000,0.0000199,0.0000000,0.0000000,0.0000040
110.2174150,0.9998500,,-0.9311886,-0.3645294,0.0000483,0.0024610,-0.0032775,0.0085354,-0.0022558,,,,1.6842620,-4.2612839,-13.9082289,0.0000000,0.0000000,0.0000000,0.0199970,0.0002001,0.0000000,0.0000000,0.0000200,0.0000000,0.0000000,0.0000000,0.0002001,0.0000000,0.0000000,0.0000200,0.0000000,0.0000000,0.0000000,0.0002001,0.0000000,0.0000000,0.0000200,0.0000200,0.0000000,0.0000000,0.0000040,0.0000000,0.0000000,0.0000000,0.0000200,0.0000000,0.0000000,0.0000040,0.0000000,0.0000000,0.0000000,0.0000200,0.0000000,0.0000000,0.0000040
110.2307250,1.0997001,,-0.9311886,-0.3645294,0.0000399,0.0024728,-0.0000671,0.0070830,0.0049756,,,,1.6842620,-4.2612839,-13.9082289,0.0000000,0.0000000,0.0000000,0.0219940,0.0002010,0.0000000,0.0000000,0.0000201,0.0000000,0.0000000,0.0000000,0.0002010,0.0000000,0.0000000,0.0000201,0.0000000,0.0000000,0.0000000,0.0002010,0.0000000,0.0000000,0.0000201,0.0000201,0.0000000,0.0000000,0.0000040,0.0000000,0.0000000,0.0000000,0.0000201,0.0000000,0.0000000,0.0000040,0.0000000,0.0000000,0.0000000,0.0000201,0.0000000,0.0000000,0.0000040
110.2520370,1.0501500,,-0.9311886,-0.3645294,0.0000307,0.0024656,0.0015381,0.0038924,0.0039527,,,,1.6842620,-4.2612839,-13.9082289,0.0000000,0.0000000,0.0000000,0.0210030,0.0002019,0.0000000,0.0000000,0.0000202,0.0000000,0.0000000,0.0000000,0.0002019,0.0000000,0.0000000,0.0000202,0.0000000,0.0000000,0.0000000,0.0002019,0.0000000,0.0000000,0.0000202,0.0000202,0.0000000,0.0000000,0.0000040,0.0000000,0.0000000,0.0000000,0.0000202,0.0000000,0.0000000,0.0000040,0.0000000,0.0000000,0.0000000,0.0000202,0.0000000,0.0000000,0.0000040
110.2719160,1.0002501,,-0.9311886,-0.3645295,0.0000037,0.0024552,0.0049881,0.0069053,0.0034412,,,,1.6842620,-4.2612839,-13.9082289,0.0000000,0.0000000,0.0000000,0.0200050,0.0002027,0.0000000,0.0000000,0.0000202,0.0000000,0.0000000,0.0000000,0.0002027,0.0000000,0.0000000,0.0000202,0.0000000,0.0000000,0.0000000,0.0002027,0.0000000,0.0000000,0.0000202,0.0000202,0.0000000,0.0000000,0.0000040,0.0000000,0.0000000,0.0000000,0.0000202,0.0000000,0.0000000,0.0000040,0.0000000,0.0000000,0.0000000,0.0000202,0.0000000,0.0000000,0.0000040
110.2930170,,0.9999500,-0.9311886,-0.3645296,-0.0000267,0.0024285,,,,0.0000000,0.0000000,0.0000000,1.6842620,-4.2612839,-13.9082289,0.0000000,0.0000000,0.0000000,0.0999950,0.0001986,0.0000000,0.0000000,0.0000198,0.0000000,0.0000000,0.0000000,0.0001986,0.0000000,0.0000000,0.0000198,0.0000000,0.0000000,0.0000000,0.0001986,0.0000000,0.0000000,0.0000198,0.0000198,0.0000000,0.0000000,0.0000040,0.0000000,0.0000000,0.0000000,0.0000198,0.0000000,0.0000000,0.0000040,0.0000000,0.0000000,0.0000000,0.0000198,0.0000000,0.0000000,0.0000040
110.3082090,1.0002501,,-0.9311886,-0.3645296,-0.0000267,0.0024285,0.0086510,0.0066494,0.0036737,,,,1.6842620,-4.2612839,-13.9082289,0.0000000,0.0000000,0.0000000,0.0200050,0.0001994,0.0000000,0.0000000,0.0000199,0.0000000,0.0000000,0.0000000,0.0001994,0.0000000,0.0000000,0.0000199,0.0000000,0.0000000,0.0000000,0.0001994,0.0000000,0.0000000,0.0000199,0.0000199,0.0000000,0.0000000,0.0000040,0.0000000,0.0000000,0.0000000,0.0000199,0.0000000,0.0000000,0.0000040,0.0000000,0.0000000,0.0000000,0.0000199,0.0000000,0.0000000,0.0000040
110.3217780,1.4994501,,-0.9311887,-0.3645296,-0.0000104,0.0024039,-0.0070271,0.0006620,0.0008603,,,,1.6842620,-4.2612839,-13.9082289,0.0000000,0.0000000,0.0000000,0.0299890,0.0002006,0.0000000,0.0000000,0.0000200,0.0000000,0.0000000,0.0000000,0.0002006,0.0000000,0.0000000,0.0000200,0.0000000,0.0000000,0.0000000,0.0002006,0.0000000,0.0000000,0.0000200,0.0000200,0.0000000,0.0000000,0.0000040,0.0000000,0.0000000,0.0000000,0.0000200,0.0000000,0.0000000,0.0000040,0.0000000,0.0000000,0.0000000,0.0000200,0.0000000,0.0000000,0.0000040
110.3428400,1.0500500,,-0.9311887,-0.3645296,-0.0000158,0.0024056,0.0036505,-0.0001191,0.0006743,,,,1.6842620,-4.2612839,-13.9082289,0.0000000,0.0000000,0.0000000,0.0210010,0.0002015,0.0000000,0.0000000,0.0000201,0.0000000,0.0000000,0.0000000,0.0002015,0.0000000,0.0000000,0.0000201,0.0000000,0.0000000,0.0000000,0.0002015,0.0000000,0.0000000,0.0000201,0.0000201,0.0000000,0.0000000,0.0000040,0.0000000,0.0000000,0.0000000,0.0000201,0.0000000,0.0000000,0.0000040,0.0000000,0.0000000,0.0000000,0.0000201,0.0000000,0.0000000,0.0000040
110.3640100,1.0499500,,-0.9311887,-0.3645296,-0.0000313,0.0024056,0.0065249,0.0011917,-0.0013718,,,,1.6842620,-4.2612839,-13.9082289,0.0000000,0.0000000,0.0000000,0.0209990,0.0002023,0.0000000,0.0000000,0.0000202,0.0000000,0.0000000,0.0000000,0.0002023,0.0000000,0.0000000,0.0000202,0.0000000,0.0000000,0.0000000,0.0002023,0.0000000,0.0000000,0.0000202,0.0000202,0.0000000,0.0000000,0.0000040,0.0000000,0.0000000,0.0000000,0.0000202,0.0000000,0.0000000,0.0000040,0.0000000,0.0000000,0.0000000,0.0000202,0.0000000,0.0000000,0.0000040
110.3838420,1.0006001,,-0.9311887,-0.3645296,-0.0000412,0.0024140,0.0025835,0.0023506,-0.0075219,,,,1.6842620,-4.2612839,-13.9082289,0.0000000,0.0000000,0.0000000,0.0200120,0.0002031,0.0000000,0.0000000,0.0000203,0.0000000,0.0000000,0.0000000,0.0002031,0.0000000,0.0000000,0.0000203,0.0000000,0.0000000,0.0000000,0.0002031,0.0000000,0.0000000,0.0000203,0.0000203,0.0000000,0.0000000,0.0000040,0.0000000,0.0000000,0.0000000,0.0000203,0.0000000,0.0000000,0.0000040,0.0000000,0.0000000,0.0000000,0.0000203,0.0000000,0.0000000,0.0000040
110.4002310,,1.0000000,-0.9311887,-0.3645296,-0.0000412,0.0024140,,,,0.0000000,0.0000000,0.0000000,1.6842620,-4.2612839,-13.9082289,0.0000000,0.0000000,0.0000000,0.1000000,0.0001991,0.0000000,0.0000000,0.0000199,0.0000000,0.0000000,0.0000000,0.0001991,0.0000000,0.0000000,0.0000199,0.0000000,0.0000000,0.0000000,0.0001991,0.0000000,0.0000000,0.0000199,0.0000199,0.0000000,0.0000000,0.0000040,0.0000000,0.0000000,0.0000000,0.0000199,0.0000000,0.0000000,0.0000040,0.0000000,0.0000000,0.0000000,0.0000199,0.0000000,0.0000000,0.0000040
110.4136900,1.0994500,,-0.9311887,-0.3645296,-0.0000406,0.0024197,-0.0006004,0.0034260,-0.0025402,,,,1.6842620,-4.2612839,-13.9082289,0.0000000,0.0000000,0.0000000,0.0219890,0.0001999,0.0000000,0.0000000,0.0000200,0.0000000,0.0000000,0.0000000,0.0001999,0.0000000,0.0000000,0.0000200,0.0000000,0.0000000,0.0000000,0.0001999,0.0000000,0.0000000,0.0000200,0.0000200,0.0000000,0.0000000,0.0000040,0.0000000,0.0000000,0.0000000,0.0000200,0.0000000,0.0000000,0.0000040,0.0000000,0.0000000,0.0000000,0.0000200,0.0000000,0.0000000,0.0000040
110.4269340,1.0498999,,-0.9311886,-0.3645296,-0.0000593,0.0024408,0.0023930,-0.0013922,-0.0007818,,,,1.6842620,-4.2612839,-13.9082289,0.0000000,0.0000000,0.0000000,0.0209980,0.0002008,0.0000000,0.0000000,0.0000201,0.0000000,0.0000000,0.0000000,0.0002008,0.0000000,0.0000000,0.0000201,0.0000000,0.0000000,0.0000000,0.0002008,0.0000000,0.0000000,0.0000201,0.0000201,0.0000000,0.0000000,0.0000040,0.0000000,0.0000000,0.0000000,0.0000201,0.0000000,0.0000000,0.0000040,0.0000000,0.0000000,0.0000000,0.0000201,0.0000000,0.0000000,0.0000040
110.4470560,1.0001000,,-0.9311886,-0.3645296,-0.0000526,0.0024323,-0.0026563,-0.0006503,0.0008298,,,,1.6842620,-4.2612839,-13.9082289,0.0000000,0.0000000,0.0000000,0.0200020,0.0002016,0.0000000,0.0000000,0.0000201,0.0000000,0.0000000,0.0000000,0.0002016,0.0000000,0.0000000,0.0000201,0.0000000,0.0000000,0.0000000,0.0002016,0.0000000,0.0000000,0.0000201,0.0000201,0.0000000,0.0000000,0.0000040,0.0000000,0.0000000,0.0000000,0.0000201,0.0000000,0.0000000,0.0000040,0.0000000,0.0000000,0.0000000,0.0000201,0.0000000,0.0000000,0.0000040
110.4670830,1.0001501,,-0.9311886,-0.3645297,-0.0000547,0.0024302,-0.0000617,-0.0019884,-0.0061769,,,,1.6842620,-4.2612839,-13.9082289,0.0000000,0.0000000,0.0000000,0.0200030,0.0002024,0.0000000,0.0000000,0.0000202,0.0000000,0.0000000,0.0000000,0.0002024,0.0000000,0.0000000,0.0000202,0.0000000,0.0000000,0.0000000,0.0002024,0.0000000,0.0000000,0.0000202,0.0000202,0.0000000,0.0000000,0.0000040,0.0000000,0.0000000,0.0000000,0.0000202,0.0000000,0.0000000,0.0000040,0.0000000,0.0000000,0.0000000,0.0000202,0.0000000,0.0000000,0.0000040
110.4868590,0.9998500,,-0.9311886,-0.3645297,-0.0000749,0.0024214,0.0029141,0.0036597,-0.0043092,,,,1.6842620,-4.2612839,-13.9082289,0.0000000,0.0000000,0.0000000,0.0199970,0.0002032,0.0000000,0.0000000,0.0000203,0.0000000,0.0000000,0.0000000,0.0002032,0.0000000,0.0000000,0.0000203,0.0000000,0.0000000,0.0000000,0.0002032,0.0000000,0.0000000,0.0000203,0.0000203,0.0000000,0.0000000,0.0000040,0.0000000,0.0000000,0.0000000,0.0000203,0.0000000,0.0000000,0.0000040,0.0000000,0.0000000,0.0000000,0.0000203,0.0000000,0.0000000,0.0000040
110.5042310,,1.0200601,-0.9311886,-0.3645297,-0.0000749,0.0024214,,,,0.0000000,0.0000000,0.0000000,1.6842620,-4.2612839,-13.9082289,0.0000000,0.0000000,0.0000000,0.1020060,0.0001992,0.0000000,0.0000000,0.0000199,0.0000000,0.0000000,0.0000000,0.0001992,0.0000000,0.0000000,0.0000199,0.0000000,0.0000000,0.0000000,0.0001992,0.0000000,0.0000000,0.0000199,0.0000199,0.0000000,0.0000000,0.0000040,0.0000000,0.0000000,0.0000000,0.0000199,0.0000000,0.0000000,0.0000040,0.0000000,0.0000000,0.0000000,0.0000199,0.0000000,0.0000000,0.0000040
110.5167880,1.0000000,,-0.9311886,-0.3645298,-0.0000921,0.0024218,0.0041350,-0.0020535,-0.0023987,,,,1.6842620,-4.2612839,-13.9082289,0.0000000,0.0000000,0.0000000,0.0200000,0.0002000,0.0000000,0.0000000,0.0000200,0.0000000,0.0000000,0.0000000,0.0002000,0.0000000,0.0000000,0.0000200,0.0000000,0.0000000,0.0000000,0.0002000,0.0000000,0.0000000,0.0000200,0.0000200,0.0000000,0.0000000,0.0000040,0.0000000,0.0000000,0.0000000,0.0000200,0.0000000,0.0000000,0.0000040,0.0000000,0.0000000,0.0000000,0.0000200,0.0000000,0.0000000,0.0000040
110.5298210,1.1498500,,-0.9311886,-0.3645298,-0.0001044,0.0024245,-0.0001450,-0.0005156,-0.0043732,,,,1.6842620,-4.2612839,-13.9082289,0.0000000,0.0000000,0.0000000,0.0229970,0.0002009,0.0000000,0.0000000,0.0000201,0.0000000,0.0000000,0.0000000,0.0002009,0.0000000,0.0000000,0.0000201,0.0000000,0.0000000,0.0000000,0.0002009,0.0000000,0.0000000,0.0000201,0.0000201,0.0000000,0.0000000,0.0000040,0.0000000,0.0000000,0.0000000,0.0000201,0.0000000,0.0000000,0.0000040,0.0000000,0.0000000,0.0000000,0.0000201,0.0000000,0.0000000,0.0000040
110.5509300,1.0500500,,-0.9311886,-0.3645298,-0.0001109,0.0024210,0.0052909,0.0031754,0.0046493,,,,1.6842620,-4.2612839,-13.9082289,0.0000000,0.0000000,0.0000000,0.0210010,0.0002017,0.0000000,0.0000000,0.0000201,0.0000000,0.0000000,0.0000000,0.0002017,0.0000000,0.0000000,0.0000201,0.0000000,0.0000000,0.0000000,0.0002017,0.0000000,0.0000000,0.0000201,0.0000201,0.0000000,0.0000000,0.0000040,0.0000000,0.0000000,0.0000000,0.0000201,0.0000000,0.0000000,0.0000040,0.0000000,0.0000000,0.0000000,0.0000201,0.0000000,0.0000000,0.0000040
110.5710340,1.0000501,,-0.9311886,-0.3645298,-0.0001130,0.0024156,-0.0017567,-0.0030433,0.0028130,,,,1.6842620,-4.2612839,-13.9082289,0.0000000,0.0000000,0.0000000,0.0200010,0.0002025,0.0000000,0.0000000,0.0000202,0.0000000,0.0000000,0.0000000,0.0002025,0.0000000,0.0000000,0.0000202,0.0000000,0.0000000,0.0000000,0.0002025,0.0000000,0.0000000,0.0000202,0.0000202,0.0000000,0.0000000,0.0000040,0.0000000,0.0000000,0.0000000,0.0000202,0.0000000,0.0000000,0.0000040,0.0000000,0.0000000,0.0000000,0.0000202,0.0000000,0.0000000,0.0000040
110.5909440,1.0000000,,-0.9311886,-0.3645298,-0.0000896,0.0024082,-0.0057154,-0.0000416,0.0018948,,,,1.6842620,-4.2612839,-13.9082289,0.0000000,0.0000000,0.0000000,0.0200000,0.0002033,0.0000000,0.0000000,0.0000203,0.0000000,0.0000000,0.0000000,0.0002033,0.0000000,0.0000000,0.0000203,0.0000000,0.0000000,0.0000000,0.0002033,0.0000000,0.0000000,0.0000203,0.0000203,0.0000000,0.0000000,0.0000040,0.0000000,0.0000000,0.0000000,0.0000203,0.0000000,0.0000000,0.0000040,0.0000000,0.0000000,0.0000000,0.0000203,0.0000000,0.0000000,0.0000040
110.6070040,,0.9999600,-0.9311886,-0.3645298,-0.0000896,0.0024082,,,,0.0000000,0.0000000,0.0000000,1.6842620,-4.2612839,-13.9082289,0.0000000,0.0000000,0.0000000,0.0999960,0.0001993,0.0000000,0.0000000,0.0000199,0.0000000,0.0000000,0.0000000,0.0001993,0.0000000,0.0000000,0.0000199,0.0000000,0.0000000,0.0000000,0.0001993,0.0000000,0.0000000,0.0000199,0.0000199,0.0000000,0.0000000,0.0000040,0.0000000,0.0000000,0.0000000,0.0000199,0.0000000,0.0000000,0.0000040,0.0000000,0.0000000,0.0000000,0.0000199,0.0000000,0.0000000,0.0000040
110.6204110,1.0005001,,-0.9311886,-0.3645298,-0.0000893,0.0024101,-0.0033307,0.0024435,-0.0014940,,,,1.6842620,-4.2612839,-13.9082289,0.0000000,0.0000000,0.0000000,0.0200100,0.0002001,0.0000000,0.0000000,0.0000200,0.0000000,0.0000000,0.0000000,0.0002001,0.0000000,0.0000000,0.0000200,0.0000000,0.0000000,0.0000000,0.0002001,0.0000000,0.0000000,0.0000200,0.0000200,0.0000000,0.0000000,0.0000040,0.0000000,0.0000000,0.0000000,0.0000200,0.0000000,0.0000000,0.0000040,0.0000000,0.0000000,0.0000000,0.0000200,0.0000000,0.0000000,0.0000040
110.6338380,1.1494499,,-0.9311886,-0.3645298,-0.0001061,0.0024037,0.0000360,-0.0002507,-0.0039208,,,,1.6842620,-4.2612839,-13.9082289,0.0000000,0.0000000,0.0000000,0.0229890,0.0002010,0.0000000,0.0000000,0.0000201,0.0000000,0.0000000,0.0000000,0.0002010,0.0000000,0.0000000,0.0000201,0.0000000,0.0000000,0.0000000,0.0002010,0.0000000,0.0000000,0.0000201,0.0000201,0.0000000,0.0000000,0.0000040,0.0000000,0.0000000,0.0000000,0.0000201,0.0000000,0.0000000,0.0000040,0.0000000,0.0000000,0.0000000,0.0000201,0.0000000,0.0000000,0.0000040
110.6552720,0.9999500,,-0.9311886,-0.3645299,-0.0001150,0.0023811,-0.0014392,-0.0038332,-0.0007397,,,,1.6842620,-4.2612839,-13.9082289,0.0000000,0.0000000,0.0000000,0.0199990,0.0002018,0.0000000,0.0000000,0.0000202,0.0000000,0.0000000,0.0000000,0.0002018,0.0000000,0.0000000,0.0000202,0.0000000,0.0000000,0.0000000,0.0002018,0.0000000,0.0000000,0.0000202,0.0000202,0.0000000,0.0000000,0.0000040,0.0000000,0.0000000,0.0000000,0.0000202,0.0000000,0.0000000,0.0000040,0.0000000,0.0000000,0.0000000,0.0000202,0.0000000,0.0000000,0.0000040
110.6739950,1.0000000,,-0.9311887,-0.3645299,-0.0001138,0.0023519,0.0066351,-0.0024736,0.0001184,,,,1.6842620,-4.2612839,-13.9082289,0.0000000,0.0000000,0.0000000,0.0200000,0.0002026,0.0000000,0.0000000,0.0000202,0.0000000,0.0000000,0.0000000,0.0002026,0.0000000,0.0000000,0.0000202,0.0000000,0.0000000,0.0000000,0.0002026,0.0000000,0.0000000,0.0000202,0.0000202,0.0000000,0.0000000,0.0000040,0.0000000,0.0000000,0.0000000,0.0000202,0.0000000,0.0000000,0.0000040,0.0000000,0.0000000,0.0000000,0.0000202,0.0000000,0.0000000,0.0000040
110.6950320,,1.0000499,-0.9311888,-0.3645299,-0.0001123,0.0023102,,,,0.0000000,0.0000000,0.0000000,1.6842620,-4.2612839,-13.9082289,0.0000000,0.0000000,0.0000000,0.1000050,0.0001986,0.0000000,0.0000000,0.0000198,0.0000000,0.0000000,0.0000000,0.0001986,0.0000000,0.0000000,0.0000198,0.0000000,0.0000000,0.0000000,0.0001986,0.0000000,0.0000000,0.0000198,0.0000198,0.0000000,0.0000000,0.0000040,0.0000000,0.0000000,0.0000000,0.0000198,0.0000000,0.0000000,0.0000040,0.0000000,0.0000000,0.0000000,0.0000198,0.0000000,0.0000000,0.0000040
110.7087280,1.0002000,,-0.9311888,-0.3645299,-0.0001123,0.0023102,0.0041034,0.0015708,0.0022565,,,,1.6842620,-4.2612839,-13.9082289,0.0000000,0.0000000,0.0000000,0.0200040,0.0001994,0.0000000,0.0000000,0.0000199,0.0000000,0.0000000,0.0000000,0.0001994,0.0000000,0.0000000,0.0000199,0.0000000,0.0000000,0.0000000,0.0001994,0.0000000,0.0000000,0.0000199,0.0000199,0.0000000,0.0000000,0.0000040,0.0000000,0.0000000,0.0000000,0.0000199,0.0000000,0.0000000,0.0000040,0.0000000,0.0000000,0.0000000,0.0000199,0.0000000,0.0000000,0.0000040
110.7220910,1.3998001,,-0.9311888,-0.3645300,-0.0001179,0.0023016,-0.0028006,-0.0005421,0.0011282,,,,1.6842620,-4.2612839,-13.9082289,0.0000000,0.0000000,0.0000000,0.0279960,0.0002005,0.0000000,0.0000000,0.0000200,0.0000000,0.0000000,0.0000000,0.0002005,0.0000000,0.0000000,0.0000200,0.0000000,0.0000000,0.0000000,0.0002005,0.0000000,0.0000000,0.0000200,0.0000200,0.0000000,0.0000000,0.0000040,0.0000000,0.0000000,0.0000000,0.0000200,0.0000000,0.0000000,0.0000040,0.0000000,0.0000000,0.0000000,0.0000200,0.0000000,0.0000000,0.0000040
110.7417250,1.0007499,,-0.9311888,-0.3645300,-0.0001367,0.0023038,0.0010335,0.0006063,0.0025172,,,,1.6842620,-4.2612839,-13.9082289,0.0000000,0.0000000,0.0000000,0.0200150,0.0002013,0.0000000,0.0000000,0.0000201,0.0000000,0.0000000,0.0000000,0.0002013,0.0000000,0.0000000,0.0000201,0.0000000,0.0000000,0.0000000,0.0002013,0.0000000,0.0000000,0.0000201,0.0000201,0.0000000,0.0000000,0.0000040,0.0000000,0.0000000,0.0000000,0.0000201,0.0000000,0.0000000,0.0000040,0.0000000,0.0000000,0.0000000,0.0000201,0.0000000,0.0000000,0.0000040
110.7628040,1.0494001,,-0.9311888,-0.3645300,-0.0001203,0.0022916,-0.0026037,-0.0015126,0.0000379,,,,1.6842620,-4.2612839,-13.9082289,0.0000000,0.0000000,0.0000000,0.0209880,0.0002021,0.0000000,0.0000000,0.0000202,0.0000000,0.0000000,0.0000000,0.0002021,0.0000000,0.0000000,0.0000202,0.0000000,0.0000000,0.0000000,0.0002021,0.0000000,0.0000000,0.0000202,0.0000202,0.0000000,0.0000000,0.0000040,0.0000000,0.0000000,0.0000000,0.0000202,0.0000000,0.0000000,0.0000040,0.0000000,0.0000000,0.0000000,0.0000202,0.0000000,0.0000000,0.0000040
110.7841060,1.0499500,,-0.9311888,-0.3645300,-0.0001226,0.0022947,0.0026273,0.0032949,-0.0024224,,,,1.6842620,-4.2612839,-13.9082289,0.0000000,0.0000000,0.0000000,0.0209990,0.0002030,0.0000000,0.0000000,0.0000203,0.0000000,0.0000000,0.0000000,0.0002030,0.0000000,0.0000000,0.0000203,0.0000000,0.0000000,0.0000000,0.0002030,0.0000000,0.0000000,0.0000203,0.0000203,0.0000000,0.0000000,0.0000040,0.0000000,0.0000000,0.0000000,0.0000203,0.0000000,0.0000000,0.0000040,0.0000000,0.0000000,0.0000000,0.0000203,0.0000000,0.0000000,0.0000040
110.8010930,,0.9999900,-0.9311888,-0.3645300,-0.0001226,0.0022843,,,,0.0000000,0.0000000,0.0000000,1.6842620,-4.2612839,-13.9082289,0.0000000,0.0000000,0.0000000,0.0999990,0.0001989,0.0000000,0.0000000,0.0000199,0.0000000,0.0000000,0.0000000,0.0001989,0.0000000,0.0000000,0.0000199,0.0000000,0.0000000,0.0000000,0.0001989,0.0000000,0.0000000,0.0000199,0.0000199,0.0000000,0.0000000,0.0000040,0.0000000,0.0000000,0.0000000,0.0000199,0.0000000,0.0000000,0.0000040,0.0000000,0.0000000,0.0000000,0.0000199,0.0000000,0.0000000,0.0000040
110.8156150,1.0009000,,-0.9311888,-0.3645300,-0.0001273,0.0022843,0.0023207,0.0037226,0.0009860,,,,1.6842620,-4.2612839,-13.9082289,0.0000000,0.0000000,0.0000000,0.0200180,0.0001997,0.0000000,0.0000000,0.0000200,0.0000000,0.0000000,0.0000000,0.0001997,0.0000000,0.0000000,0.0000200,0.0000000,0.0000000,0.0000000,0.0001997,0.0000000,0.0000000,0.0000200,0.0000200,0.0000000,0.0000000,0.0000040,0.0000000,0.0000000,0.0000000,0.0000200,0.0000000,0.0000000,0.0000040,0.0000000,0.0000000,0.0000000,0.0000200,0.0000000,0.0000000,0.0000040
110.8287850,1.2490000,,-0.9311888,-0.3645300,-0.0001438,0.0022802,0.0038459,0.0097883,0.0048876,,,,1.6842620,-4.2612839,-13.9082289,0.0000000,0.0000000,0.0000000,0.0249800,0.0002007,0.0000000,0.0000000,0.0000201,0.0000000,0.0000000,0.0000000,0.0002007,0.0000000,0.0000000,0.0000201,0.0000000,0.0000000,0.0000000,0.0002007,0.0000000,0.0000000,0.0000201,0.0000201,0.0000000,0.0000000,0.0000040,0.0000000,0.0000000,0.0000000,0.0000201,0.0000000,0.0000000,0.0000040,0.0000000,0.0000000,0.0000000,0.0000201,0.0000000,0.0000000,0.0000040
110.8489250,1.0000501,,-0.9311888,-0.3645301,-0.0001545,0.0022666,0.0009540,0.0042533,-0.0012183,,,,1.6842620,-4.2612839,-13.9082289,0.0000000,0.0000000,0.0000000,0.0200010,0.0002015,0.0000000,0.0000000,0.0000201,0.0000000,0.0000000,0.0000000,0.0002015,0.0000000,0.0000000,0.0000201,0.0000000,0.0000000,0.0000000,0.0002015,0.0000000,0.0000000,0.0000201,0.0000201,0.0000000,0.0000000,0.0000040,0.0000000,0.0000000,0.0000000,0.0000201,0.0000000,0.0000000,0.0000040,0.0000000,0.0000000,0.0000000,0.0000201,0.0000000,0.0000000,0.0000040
110.8687660,1.0005500,,-0.9311888,-0.3645301,-0.0001654,0.0022658,0.0002252,0.0014934,0.0035412,,,,1.6842620,-4.2612839,-13.9082289,0.0000000,0.0000000,0.0000000,0.0200110,0.0002023,0.0000000,0.0000000,0.0000202,0.0000000,0.0000000,0.0000000,0.0002023,0.0000000,0.0000000,0.0000202,0.0000000,0.0000000,0.0000000,0.0002023,0.0000000,0.0000000,0.0000202,0.0000202,0.0000000,0.0000000,0.0000040,0.0000000,0.0000000,0.0000000,0.0000202,0.0000000,0.0000000,0.0000040,0.0000000,0.0000000,0.0000000,0.0000202,0.0000000,0.0000000,0.0000040
110.8899190,1.0496000,,-0.9311888,-0.3645300,-0.0001255,0.0022751,-0.0083636,-0.0010615,0.0005499,,,,1.6842620,-4.2612839,-13.9082289,0.0000000,0.0000000,0.0000000,0.0209920,0.0002032,0.0000000,0.0000000,0.0000203,0.0000000,0.0000000,0.0000000,0.0002032,0.0000000,0.0000000,0.0000203,0.0000000,0.0000000,0.0000000,0.0002032,0.0000000,0.0000000,0.0000203,0.0000203,0.0000000,0.0000000,0.0000040,0.0000000,0.0000000,0.0000000,0.0000203,0.0000000,0.0000000,0.0000040,0.0000000,0.0000000,0.0000000,0.0000203,0.0000000,0.0000000,0.0000040
110.9059240,,0.9999500,-0.9311888,-0.3645300,-0.0001255,0.0022751,,,,0.0000000,0.0000000,0.0000000,1.6842620,-4.2612839,-13.9082289,0.0000000,0.0000000,0.0000000,0.0999950,0.0001991,0.0000000,0.0000000,0.0000199,0.0000000,0.0000000,0.0000000,0.0001991,0.0000000,0.0000000,0.0000199,0.0000000,0.0000000,0.0000000,0.0001991,0.0000000,0.0000000,0.0000199,0.0000199,0.0000000,0.0000000,0.0000040,0.0000000,0.0000000,0.0000000,0.0000199,0.0000000,0.0000000,0.0000040,0.0000000,0.0000000,0.0000000,0.0000199,0.0000000,0.0000000,0.0000040
110.9196030,1.1004000,,-0.9311889,-0.3645300,-0.0001040,0.0022668,-0.0077600,0.0061831,0.0024722,,,,1.6842620,-4.2612839,-13.9082289,0.0000000,0.0000000,0.0000000,0.0220080,0.0002000,0.0000000,0.0000000,0.0000200,0.0000000,0.0000000,0.0000000,0.0002000,0.0000000,0.0000000,0.0000200,0.0000000,0.0000000,0.0000000,0.0002000,0.0000000,0.0000000,0.0000200,0.0000200,0.0000000,0.0000000,0.0000040,0.0000000,0.0000000,0.0000000,0.0000200,0.0000000,0.0000000,0.0000040,0.0000000,0.0000000,0.0000000,0.0000200,0.0000000,0.0000000,0.0000040
110.9329030,1.0494001,,-0.9311888,-0.3645300,-0.0001141,0.0022784,0.0015216,0.0071351,0.0024568,,,,1.6842620,-4.2612839,-13.9082289,0.0000000,0.0000000,0.0000000,0.0209880,0.0002009,0.0000000,0.0000000,0.0000201,0.0000000,0.0000000,0.0000000,0.0002009,0.0000000,0.0000000,0.0000201,0.0000000,0.0000000,0.0000000,0.0002009,0.0000000,0.0000000,0.0000201,0.0000201,0.0000000,0.0000000,0.0000040,0.0000000,0.0000000,0.0000000,0.0000201,0.0000000,0.0000000,0.0000040,0.0000000,0.0000000,0.0000000,0.0000201,0.0000000,0.0000000,0.0000040
110.9526970,1.0006001,,-0.9311888,-0.3645301,-0.0001520,0.0022762,0.0000055,0.0063523,-0.0014571,,,,1.6842620,-4.2612839,-13.9082289,0.0000000,0.0000000,0.0000000,0.0200120,0.0002017,0.0000000,0.0000000,0.0000201,0.0000000,0.0000000,0.0000000,0.0002017,0.0000000,0.0000000,0.0000201,0.0000000,0.0000000,0.0000000,0.0002017,0.0000000,0.0000000,0.0000201,0.0000201,0.0000000,0.0000000,0.0000040,0.0000000,0.0000000,0.0000000,0.0000201,0.0000000,0.0000000,0.0000040,0.0000000,0.0000000,0.0000000,0.0000201,0.0000000,0.0000000,0.0000040
110.9727080,1.0001000,,-0.9311888,-0.3645301,-0.0001763,0.0022761,-0.0010120,0.0003456,0.0036660,,,,1.6842620,-4.2612839,-13.9082289,0.0000000,0.0000000,0.0000000,0.0200020,0.0002025,0.0000000,0.0000000,0.0000202,0.0000000,0.0000000,0.0000000,0.0002025,0.0000000,0.0000000,0.0000202,0.0000000,0.0000000,0.0000000,0.0002025,0.0000000,0.0000000,0.0000202,0.0000202,0.0000000,0.0000000,0.0000040,0.0000000,0.0000000,0.0000000,0.0000202,0.0000000,0.0000000,0.0000040,0.0000000,0.0000000,0.0000000,0.0000202,0.0000000,0.0000000,0.0000040
110.9959220,,1.0100100,-0.9311888,-0.3645301,-0.0001941,0.0022909,,,,0.0000000,0.0000000,0.0000000,1.6842620,-4.2612839,-13.9082289,0.0000000,0.0000000,0.0000000,0.1010010,0.0001984,0.0000000,0.0000000,0.0000198,0.0000000,0.0000000,0.0000000,0.0001984,0.0000000,0.0000000,0.0000198,0.0000000,0.0000000,0.0000000,0.0001984,0.0000000,0.0000000,0.0000198,0.0000198,0.0000000,0.0000000,0.0000040,0.0000000,0.0000000,0.0000000,0.0000198,0.0000000,0.0000000,0.0000040,0.0000000,0.0000000,0.0000000,0.0000198,0.0000000,0.0000000,0.0000040
111.0096080,1.0993000,,-0.9311888,-0.3645301,-0.0001941,0.0022909,0.0067572,0.0044453,0.0018330,,,,1.6842620,-4.2612839,-13.9082289,0.0000000,0.0000000,0.0000000,0.0219860,0.0001993,0.0000000,0.0000000,0.0000199,0.0000000,0.0000000,0.0000000,0.0001993,0.0000000,0.0000000,0.0000199,0.0000000,0.0000000,0.0000000,0.0001993,0.0000000,0.0000000,0.0000199,0.0000199,0.0000000,0.0000000,0.0000040,0.0000000,0.0000000,0.0000000,0.0000199,0.0000000,0.0000000,0.0000040,0.0000000,0.0000000,0.0000000,0.0000199,0.0000000,0.0000000,0.0000040
111.0228080,1.4000500,,-0.9311887,-0.3645302,-0.0002148,0.0023113,0.0018222,-0.0010580,-0.0012808,,,,1.6842620,-4.2612839,-13.9082289,0.0000000,0.0000000,0.0000000,0.0280010,0.0002004,0.0000000,0.0000000,0.0000200,0.0000000,0.0000000,0.0000000,0.0002004,0.0000000,0.0000000,0.0000200,0.0000000,0.0000000,0.0000000,0.0002004,0.0000000,0.0000000,0.0000200,0.0000200,0.0000000,0.0000000,0.0000040,0.0000000,0.0000000,0.0000000,0.0000200,0.0000000,0.0000000,0.0000040,0.0000000,0.0000000,0.0000000,0.0000200,0.0000000,0.0000000,0.0000040
111.0430430,1.0003999,,-0.9311886,-0.3645302,-0.0002322,0.0023203,-0.0004088,-0.0003993,-0.0077205,,,,1.6842620,-4.2612839,-13.9082289,0.0000000,0.0000000,0.0000000,0.0200080,0.0002012,0.0000000,0.0000000,0.0000201,0.0000000,0.0000000,0.0000000,0.0002012,0.0000000,0.0000000,0.0000201,0.0000000,0.0000000,0.0000000,0.0002012,0.0000000,0.0000000,0.0000201,0.0000201,0.0000000,0.0000000,0.0000040,0.0000000,0.0000000,0.0000000,0.0000201,0.0000000,0.0000000,0.0000040,0.0000000,0.0000000,0.0000000,0.0000201,0.0000000,0.0000000,0.0000040
111.0629570,0.9997500,,-0.9311886,-0.3645302,-0.0002314,0.0023163,-0.0029662,-0.0008100,-0.0048368,,,,1.6842620,-4.2612839,-13.9082289,0.0000000,0.0000000,0.0000000,0.0199950,0.0002020,0.0000000,0.0000000,0.0000202,0.0000000,0.0000000,0.0000000,0.0002020,0.0000000,0.0000000,0.0000202,0.0000000,0.0000000,0.0000000,0.0002020,0.0000000,0.0000000,0.0000202,0.0000202,0.0000000,0.0000000,0.0000040,0.0000000,0.0000000,0.0000000,0.0000202,0.0000000,0.0000000,0.0000040,0.0000000,0.0000000,0.0000000,0.0000202,0.0000000,0.0000000,0.0000040
111.0826800,1.0005001,,-0.9311887,-0.3645302,-0.0002307,0.0023066,0.0018662,0.0023874,-0.0007094,,,,1.6842620,-4.2612839,-13.9082289,0.0000000,0.0000000,0.0000000,0.0200100,0.0002028,0.0000000,0.0000000,0.0000203,0.0000000,0.0000000,0.0000000,0.0002028,0.0000000,0.0000000,0.0000203,0.0000000,0.0000000,0.0000000,0.0002028,0.0000000,0.0000000,0.0000203,0.0000203,0.0000000,0.0000000,0.0000040,0.0000000,0.0000000,0.0000000,0.0000203,0.0000000,0.0000000,0.0000040,0.0000000,0.0000000,0.0000000,0.0000203,0.0000000,0.0000000,0.0000040
111.0990380,,1.0159700,-0.9311887,-0.3645302,-0.0002307,0.0023066,,,,0.0000000,0.0000000,0.0000000,1.6842620,-4.2612839,-13.9082289,0.0000000,0.0000000,0.0000000,0.1015970,0.0001988,0.0000000,0.0000000,0.0000199,0.0000000,0.0000000,0.0000000,0.0001988,0.0000000,0.0000000,0.0000199,0.0000000,0.0000000,0.0000000,0.0001988,0.0000000,0.0000000,0.0000199,0.0000199,0.0000000,0.0000000,0.0000040,0.0000000,0.0000000,0.0000000,0.0000199,0.0000000,0.0000000,0.0000040,0.0000000,0.0000000,0.0000000,0.0000199,0.0000000,0.0000000,0.0000040
111.1131850,1.0994500,,-0.9311887,-0.3645303,-0.0002426,0.0022995,0.0025505,0.0032384,-0.0005988,,,,1.6842620,-4.2612839,-13.9082289,0.0000000,0.0000000,0.0000000,0.0219890,0.0001997,0.0000000,0.0000000,0.0000199,0.0000000,0.0000000,0.0000000,0.0001997,0.0000000,0.0000000,0.0000199,0.0000000,0.0000000,0.0000000,0.0001997,0.0000000,0.0000000,0.0000199,0.0000199,0.0000000,0.0000000,0.0000040,0.0000000,0.0000000,0.0000000,0.0000199,0.0000000,0.0000000,0.0000040,0.0000000,0.0000000,0.0000000,0.0000199,0.0000000,0.0000000,0.0000040
111.1267090,1.0999500,,-0.9311888,-0.3645302,-0.0002045,0.0022837,-0.0075138,0.0066012,-0.0027408,,,,1.6842620,-4.2612839,-13.9082289,0.0000000,0.0000000,0.0000000,0.0219990,0.0002006,0.0000000,0.0000000,0.0000200,0.0000000,0.0000000,0.0000000,0.0002006,0.0000000,0.0000000,0.0000200,0.0000000,0.0000000,0.0000000,0.0002006,0.0000000,0.0000000,0.0000200,0.0000200,0.0000000,0.0000000,0.0000040,0.0000000,0.0000000,0.0000000,0.0000200,0.0000000,0.0000000,0.0000040,0.0000000,0.0000000,0.0000000,0.0000200,0.0000000,0.0000000,0.0000040
111.1492460,1.0503500,,-0.9311888,-0.3645302,-0.0001853,0.0022776,0.0011259,-0.0004989,-0.0018587,,,,1.6842620,-4.2612839,-13.9082289,0.0000000,0.0000000,0.0000000,0.0210070,0.0002014,0.0000000,0.0000000,0.0000201,0.0000000,0.0000000,0.0000000,0.0002014,0.0000000,0.0000000,0.0000201,0.0000000,0.0000000,0.0000000,0.0002014,0.0000000,0.0000000,0.0000201,0.0000201,0.0000000,0.0000000,0.0000040,0.0000000,0.0000000,0.0000000,0.0000201,0.0000000,0.0000000,0.0000040,0.0000000,0.0000000,0.0000000,0.0000201,0.0000000,0.0000000,0.0000040
111.1680500,1.0000000,,-0.9311888,-0.3645302,-0.0001823,0.0022574,-0.0045640,-0.0006690,0.0007796,,,,1.6842620,-4.2612839,-13.9082289,0.0000000,0.0000000,0.0000000,0.0200000,0.0002022,0.0000000,0.0000000,0.0000202,0.0000000,0.0000000,0.0000000,0.0002022,0.0000000,0.0000000,0.0000202,0.0000000,0.0000000,0.0000000,0.0002022,0.0000000,0.0000000,0.0000202,0.0000202,0.0000000,0.0000000,0.0000040,0.0000000,0.0000000,0.0000000,0.0000202,0.0000000,0.0000000,0.0000040,0.0000000,0.0000000,0.0000000,0.0000202,0.0000000,0.0000000,0.0000040
111.1878180,1.0003500,,-0.9311888,-0.3645302,-0.0002067,0.0022642,0.0008308,-0.0068424,0.0055168,,,,1.6842620,-4.2612839,-13.9082289,0.0000000,0.0000000,0.0000000,0.0200070,0.0002030,0.0000000,0.0000000,0.0000203,0.0000000,0.0000000,0.0000000,0.0002030,0.0000000,0.0000000,0.0000203,0.0000000,0.0000000,0.0000000,0.0002030,0.0000000,0.0000000,0.0000203,0.0000203,0.0000000,0.0000000,0.0000040,0.0000000,0.0000000,0.0000000,0.0000203,0.0000000,0.0000000,0.0000040,0.0000000,0.0000000,0.0000000,0.0000203,0.0000000,0.0000000,0.0000040
111.2041640,,1.0040100,-0.9311888,-0.3645302,-0.0002067,0.0022642,,,,0.0000000,0.0000000,0.0000000,1.6842620,-4.2612839,-13.9082289,0.0000000,0.0000000,0.0000000,0.1004010,0.0001990,0.0000000,0.0000000,0.0000199,0.0000000,0.0000000,0.0000000,0.0001990,0.0000000,0.0000000,0.0000199,0.0000000,0.0000000,0.0000000,0.0001990,0.0000000,0.0000000,0.0000199,0.0000199,0.0000000,0.0000000,0.0000040,0.0000000,0.0000000,0.0000000,0.0000199,0.0000000,0.0000000,0.0000040,0.0000000,0.0000000,0.0000000,0.0000199,0.0000000,0.0000000,0.0000040
111.2188880,1.0993000,,-0.9311887,-0.3645303,-0.0002440,0.0022869,0.0044437,-0.0079607,-0.0021244,,,,1.6842620,-4.2612839,-13.9082289,0.0000000,0.0000000,0.0000000,0.0219860,0.0001999,0.0000000,0.0000000,0.0000200,0.0000000,0.0000000,0.0000000,0.0001999,0.0000000,0.0000000,0.0000200,0.0000000,0.0000000,0.0000000,0.0001999,0.0000000,0.0000000,0.0000200,0.0000200,0.0000000,0.0000000,0.0000040,0.0000000,0.0000000,0.0000000,0.0000200,0.0000000,0.0000000,0.0000040,0.0000000,0.0000000,0.0000000,0.0000200,0.0000000,0.0000000,0.0000040
111.2320140,1.1000000,,-0.9311887,-0.3645303,-0.0002569,0.0022951,0.0011385,-0.0053460,-0.0039919,,,,1.6842620,-4.2612839,-13.9082289,0.0000000,0.0000000,0.0000000,0.0220000,0.0002007,0.0000000,0.0000000,0.0000201,0.0000000,0.0000000,0.0000000,0.0002007,0.0000000,0.0000000,0.0000201,0.0000000,0.0000000,0.0000000,0.0002007,0.0000000,0.0000000,0.0000201,0.0000201,0.0000000,0.0000000,0.0000040,0.0000000,0.0000000,0.0000000,0.0000201,0.0000000,0.0000000,0.0000040,0.0000000,0.0000000,0.0000000,0.0000201,0.0000000,0.0000000,0.0000040
111.2520130,1.0003999,,-0.9311886,-0.3645303,-0.0002733,0.0023018,0.0060548,-0.0030697,-0.0080995,,,,1.6842620,-4.2612839,-13.9082289,0.0000000,0.0000000,0.0000000,0.0200080,0.0002015,0.0000000,0.0000000,0.0000201,0.0000000,0.0000000,0.0000000,0.0002015,0.0000000,0.0000000,0.0000201,0.0000000,0.0000000,0.0000000,0.0002015,0.0000000,0.0000000,0.0000201,0.0000201,0.0000000,0.0000000,0.0000040,0.0000000,0.0000000,0.0000000,0.0000201,0.0000000,0.0000000,0.0000040,0.0000000,0.0000000,0.0000000,0.0000201,0.0000000,0.0000000,0.0000040
111.2716140,1.0000000,,-0.9311886,-0.3645303,-0.0002713,0.0022935,0.0048737,0.0024553,-0.0050263,,,,1.6842620,-4.2612839,-13.9082289,0.0000000,0.0000000,0.0000000,0.0200000,0.0002023,0.0000000,0.0000000,0.0000202,0.0000000,0.0000000,0.0000000,0.0002023,0.0000000,0.0000000,0.0000202,0.0000000,0.0000000,0.0000000,0.0002023,0.0000000,0.0000000,0.0000202,0.0000202,0.0000000,0.0000000,0.0000040,0.0000000,0.0000000,0.0000000,0.0000202,0.0000000,0.0000000,0.0000040,0.0000000,0.0000000,0.0000000,0.0000202,0.0000000,0.0000000,0.0000040
111.2927010,1.0497000,,-0.9311887,-0.3645303,-0.0002612,0.0022921,0.0040543,0.0037606,-0.0051987,,,,1.6842620,-4.2612839,-13.9082289,0.0000000,0.0000000,0.0000000,0.0209940,0.0002032,0.0000000,0.0000000,0.0000203,0.0000000,0.0000000,0.0000000,0.0002032,0.0000000,0.0000000,0.0000203,0.0000000,0.0000000,0.0000000,0.0002032,0.0000000,0.0000000,0.0000203,0.0000203,0.0000000,0.0000000,0.0000040,0.0000000,0.0000000,0.0000000,0.0000203,0.0000000,0.0000000,0.0000040,0.0000000,0.0000000,0.0000000,0.0000203,0.0000000,0.0000000,0.0000040
111.3088850,,1.0000199,-0.9311887,-0.3645303,-0.0002612,0.0022921,,,,0.0000000,0.0000000,0.0000000,1.6842620,-4.2612839,-13.9082289,0.0000000,0.0000000,0.0000000,0.1000020,0.0001991,0.0000000,0.0000000,0.0000199,0.0000000,0.0000000,0.0000000,0.0001991,0.0000000,0.0000000,0.0000199,0.0000000,0.0000000,0.0000000,0.0001991,0.0000000,0.0000000,0.0000199,0.0000199,0.0000000,0.0000000,0.0000040,0.0000000,0.0000000,0.0000000,0.0000199,0.0000000,0.0000000,0.0000040,0.0000000,0.0000000,0.0000000,0.0000199,0.0000000,0.0000000,0.0000040
111.3217990,1.0999000,,-0.9311887,-0.3645303,-0.0002575,0.0022994,-0.0017342,0.0022313,0.0049690,,,,1.6842620,-4.2612839,-13.9082289,0.0000000,0.0000000,0.0000000,0.0219980,0.0002000,0.0000000,0.0000000,0.0000200,0.0000000,0.0000000,0.0000000,0.0002000,0.0000000,0.0000000,0.0000200,0.0000000,0.0000000,0.0000000,0.0002000,0.0000000,0.0000000,0.0000200,0.0000200,0.0000000,0.0000000,0.0000040,0.0000000,0.0000000,0.0000000,0.0000200,0.0000000,0.0000000,0.0000040,0.0000000,0.0000000,0.0000000,0.0000200,0.0000000,0.0000000,0.0000040
111.3348490,0.9999500,,-0.9311887,-0.3645303,-0.0002413,0.0022923,0.0012692,-0.0000059,-0.0011776,,,,1.6842620,-4.2612839,-13.9082289,0.0000000,0.0000000,0.0000000,0.0199990,0.0002008,0.0000000,0.0000000,0.0000201,0.0000000,0.0000000,0.0000000,0.0002008,0.0000000,0.0000000,0.0000201,0.0000000,0.0000000,0.0000000,0.0002008,0.0000000,0.0000000,0.0000201,0.0000201,0.0000000,0.0000000,0.0000040,0.0000000,0.0000000,0.0000000,0.0000201,0.0000000,0.0000000,0.0000040,0.0000000,0.0000000,0.0000000,0.0000201,0.0000000,0.0000000,0.0000040
111.3548510,1.0005500,,-0.9311886,-0.3645303,-0.0002534,0.0023139,0.0000242,-0.0030471,0.0013643,,,,1.6842620,-4.2612839,-13.9082289,0.0000000,0.0000000,0.0000000,0.0200110,0.0002016,0.0000000,0.0000000,0.0000201,0.0000000,0.0000000,0.0000000,0.0002016,0.0000000,0.0000000,0.0000201,0.0000000,0.0000000,0.0000000,0.0002016,0.0000000,0.0000000,0.0000201,0.0000201,0.0000000,0.0000000,0.0000040,0.0000000,0.0000000,0.0000000,0.0000201,0.0000000,0.0000000,0.0000040,0.0000000,0.0000000,0.0000000,0.0000201,0.0000000,0.0000000,0.0000040
111.3758400,1.0495499,,-0.9311886,-0.3645304,-0.0002921,0.0023221,0.0113112,-0.0021568,0.0001939,,,,1.6842620,-4.2612839,-13.9082289,0.0000000,0.0000000,0.0000000,0.0209910,0.0002025,0.0000000,0.0000000,0.0000202,0.0000000,0.0000000,0.0000000,0.0002025,0.0000000,0.0000000,0.0000202,0.0000000,0.0000000,0.0000000,0.0002025,0.0000000,0.0000000,0.0000202,0.0000202,0.0000000,0.0000000,0.0000040,0.0000000,0.0000000,0.0000000,0.0000202,0.0000000,0.0000000,0.0000040,0.0000000,0.0000000,0.0000000,0.0000202,0.0000000,0.0000000,0.0000040
111.4005250,,1.0099800,-0.9311886,-0.3645304,-0.0003004,0.0023294,,,,0.0000000,0.0000000,0.0000000,1.6842620,-4.2612839,-13.9082289,0.0000000,0.0000000,0.0000000,0.1009980,0.0001984,0.0000000,0.0000000,0.0000198,0.0000000,0.0000000,0.0000000,0.0001984,0.0000000,0.0000000,0.0000198,0.0000000,0.0000000,0.0000000,0.0001984,0.0000000,0.0000000,0.0000198,0.0000198,0.0000000,0.0000000,0.0000040,0.0000000,0.0000000,0.0000000,0.0000198,0.0000000,0.0000000,0.0000040,0.0000000,0.0000000,0.0000000,0.0000198,0.0000000,0.0000000,0.0000040
111.4136090,1.1003000,,-0.9311886,-0.3645304,-0.0003004,0.0023294,0.0035423,-0.0021847,0.0022942,,,,1.6842620,-4.2612839,-13.9082289,0.0000000,0.0000000,0.0000000,0.0220060,0.0001993,0.0000000,0.0000000,0.0000199,0.0000000,0.0000000,0.0000000,0.0001993,0.0000000,0.0000000,0.0000199,0.0000000,0.0000000,0.0000000,0.0001993,0.0000000,0.0000000,0.0000199,0.0000199,0.0000000,0.0000000,0.0000040,0.0000000,0.0000000,0.0000000,0.0000199,0.0000000,0.0000000,0.0000040,0.0000000,0.0000000,0.0000000,0.0000199,0.0000000,0.0000000,0.0000040
111.4282540,1.4495500,,-0.9311886,-0.3645304,-0.0002971,0.0023256,-0.0012959,-0.0000090,0.0040768,,,,1.6842620,-4.2612839,-13.9082289,0.0000000,0.0000000,0.0000000,0.0289910,0.0002005,0.0000000,0.0000000,0.0000200,0.0000000,0.0000000,0.0000000,0.0002005,0.0000000,0.0000000,0.0000200,0.0000000,0.0000000,0.0000000,0.0002005,0.0000000,0.0000000,0.0000200,0.0000200,0.0000000,0.0000000,0.0000040,0.0000000,0.0000000,0.0000000,0.0000200,0.0000000,0.0000000,0.0000040,0.0000000,0.0000000,0.0000000,0.0000200,0.0000000,0.0000000,0.0000040
111.4468550,1.0005001,,-0.9311886,-0.3645304,-0.0002824,0.0022961,-0.0034250,0.0020097,-0.0001589,,,,1.6842620,-4.2612839,-13.9082289,0.0000000,0.0000000,0.0000000,0.0200100,0.0002013,0.0000000,0.0000000,0.0000201,0.0000000,0.0000000,0.0000000,0.0002013,0.0000000,0.0000000,0.0000201,0.0000000,0.0000000,0.0000000,0.0002013,0.0000000,0.0000000,0.0000201,0.0000201,0.0000000,0.0000000,0.0000040,0.0000000,0.0000000,0.0000000,0.0000201,0.0000000,0.0000000,0.0000040,0.0000000,0.0000000,0.0000000,0.0000201,0.0000000,0.0000000,0.0000040
111.4669820,0.9997500,,-0.9311887,-0.3645304,-0.0003075,0.0022678,0.0061992,0.0044381,0.0028503,,,,1.6842620,-4.2612839,-13.9082289,0.0000000,0.0000000,0.0000000,0.0199950,0.0002021,0.0000000,0.0000000,0.0000202,0.0000000,0.0000000,0.0000000,0.0002021,0.0000000,0.0000000,0.0000202,0.0000000,0.0000000,0.0000000,0.0002021,0.0000000,0.0000000,0.0000202,0.0000202,0.0000000,0.0000000,0.0000040,0.0000000,0.0000000,0.0000000,0.0000202,0.0000000,0.0000000,0.0000040,0.0000000,0.0000000,0.0000000,0.0000202,0.0000000,0.0000000,0.0000040
111.4870300,1.0004500,,-0.9311887,-0.3645305,-0.0003133,0.0022576,0.0024740,0.0027378,-0.0012604,,,,1.6842620,-4.2612839,-13.9082289,0.0000000,0.0000000,0.0000000,0.0200090,0.0002029,0.0000000,0.0000000,0.0000203,0.0000000,0.0000000,0.0000000,0.0002029,0.0000000,0.0000000,0.0000203,0.0000000,0.0000000,0.0000000,0.0002029,0.0000000,0.0000000,0.0000203,0.0000203,0.0000000,0.0000000,0.0000040,0.0000000,0.0000000,0.0000000,0.0000203,0.0000000,0.0000000,0.0000040,0.0000000,0.0000000,0.0000000,0.0000203,0.0000000,0.0000000,0.0000040
111.5027900,,1.0000401,-0.9311887,-0.3645305,-0.0003133,0.0022576,,,,0.0000000,0.0000000,0.0000000,1.6842620,-4.2612839,-13.9082289,0.0000000,0.0000000,0.0000000,0.1000040,0.0001989,0.0000000,0.0000000,0.0000199,0.0000000,0.0000000,0.0000000,0.0001989,0.0000000,0.0000000,0.0000199,0.0000000,0.0000000,0.0000000,0.0001989,0.0000000,0.0000000,0.0000199,0.0000199,0.0000000,0.0000000,0.0000040,0.0000000,0.0000000,0.0000000,0.0000199,0.0000000,0.0000000,0.0000040,0.0000000,0.0000000,0.0000000,0.0000199,0.0000000,0.0000000,0.0000040
111.5164600,0.9997500,,-0.9311887,-0.3645305,-0.0003076,0.0022567,-0.0062093,0.0070223,0.0040085,,,,1.6842620,-4.2612839,-13.9082289,0.0000000,0.0000000,0.0000000,0.0199950,0.0001996,0.0000000,0.0000000,0.0000199,0.0000000,0.0000000,0.0000000,0.0001996,0.0000000,0.0000000,0.0000199,0.0000000,0.0000000,0.0000000,0.0001996,0.0000000,0.0000000,0.0000199,0.0000199,0.0000000,0.0000000,0.0000040,0.0000000,0.0000000,0.0000000,0.0000199,0.0000000,0.0000000,0.0000040,0.0000000,0.0000000,0.0000000,0.0000199,0.0000000,0.0000000,0.0000040
111.5300560,1.1495500,,-0.9311887,-0.3645304,-0.0002995,0.0022534,-0.0024867,0.0047700,0.0063988,,,,1.6842620,-4.2612839,-13.9082289,0.0000000,0.0000000,0.0000000,0.0229910,0.0002006,0.0000000,0.0000000,0.0000200,0.0000000,0.0000000,0.0000000,0.0002006,0.0000000,0.0000000,0.0000200,0.0000000,0.0000000,0.0000000,0.0002006,0.0000000,0.0000000,0.0000200,0.0000200,0.0000000,0.0000000,0.0000040,0.0000000,0.0000000,0.0000000,0.0000200,0.0000000,0.0000000,0.0000040,0.0000000,0.0000000,0.0000000,0.0000200,0.0000000,0.0000000,0.0000040
111.5499590,1.0001000,,-0.9311887,-0.3645305,-0.0003155,0.0022523,0.0039752,0.0050934,0.0022228,,,,1.6842620,-4.2612839,-13.9082289,0.0000000,0.0000000,0.0000000,0.0200020,0.0002014,0.0000000,0.0000000,0.0000201,0.0000000,0.0000000,0.0000000,0.0002014,0.0000000,0.0000000,0.0000201,0.0000000,0.0000000,0.0000000,0.0002014,0.0000000,0.0000000,0.0000201,0.0000201,0.0000000,0.0000000,0.0000040,0.0000000,0.0000000,0.0000000,0.0000201,0.0000000,0.0000000,0.0000040,0.0000000,0.0000000,0.0000000,0.0000201,0.0000000,0.0000000,0.0000040
111.5712320,1.0000000,,-0.9311887,-0.3645305,-0.0003280,0.0022566,0.0018274,0.0069718,0.0040411,,,,1.6842620,-4.2612839,-13.9082289,0.0000000,0.0000000,0.0000000,0.0200000,0.0002022,0.0000000,0.0000000,0.0000202,0.0000000,0.0000000,0.0000000,0.0002022,0.0000000,0.0000000,0.0000202,0.0000000,0.0000000,0.0000000,0.0002022,0.0000000,0.0000000,0.0000202,0.0000202,0.0000000,0.0000000,0.0000040,0.0000000,0.0000000,0.0000000,0.0000202,0.0000000,0.0000000,0.0000040,0.0000000,0.0000000,0.0000000,0.0000202,0.0000000,0.0000000,0.0000040
111.5900090,0.9999500,,-0.9311887,-0.3645305,-0.0003163,0.0022495,-0.0053119,0.0035164,0.0042178,,,,1.6842620,-4.2612839,-13.9082289,0.0000000,0.0000000,0.0000000,0.0199990,0.0002030,0.0000000,0.0000000,0.0000203,0.0000000,0.0000000,0.0000000,0.0002030,0.0000000,0.0000000,0.0000203,0.0000000,0.0000000,0.0000000,0.0002030,0.0000000,0.0000000,0.0000203,0.0000203,0.0000000,0.0000000,0.0000040,0.0000000,0.0000000,0.0000000,0.0000203,0.0000000,0.0000000,0.0000040,0.0000000,0.0000000,0.0000000,0.0000203,0.0000000,0.0000000,0.0000040
111.6060590,,1.0199800,-0.9311887,-0.3645305,-0.0003163,0.0022495,,,,0.0000000,0.0000000,0.0000000,1.6842620,-4.2612839,-13.9082289,0.0000000,0.0000000,0.0000000,0.1019980,0.0001989,0.0000000,0.0000000,0.0000199,0.0000000,0.0000000,0.0000000,0.0001989,0.0000000,0.0000000,0.0000199,0.0000000,0.0000000,0.0000000,0.0001989,0.0000000,0.0000000,0.0000199,0.0000199,0.0000000,0.0000000,0.0000040,0.0000000,0.0000000,0.0000000,0.0000199,0.0000000,0.0000000,0.0000040,0.0000000,0.0000000,0.0000000,0.0000199,0.0000000,0.0000000,0.0000040
111.6199140,1.0000501,,-0.9311887,-0.3645305,-0.0003233,0.0022517,-0.0028085,0.0025211,0.0023530,,,,1.6842620,-4.2612839,-13.9082289,0.0000000,0.0000000,0.0000000,0.0200010,0.0001997,0.0000000,0.0000000,0.0000200,0.0000000,0.0000000,0.0000000,0.0001997,0.0000000,0.0000000,0.0000200,0.0000000,0.0000000,0.0000000,0.0001997,0.0000000,0.0000000,0.0000200,0.0000200,0.0000000,0.0000000,0.0000040,0.0000000,0.0000000,0.0000000,0.0000200,0.0000000,0.0000000,0.0000040,0.0000000,0.0000000,0.0000000,0.0000200,0.0000000,0.0000000,0.0000040
111.6328670,1.1498500,,-0.9311887,-0.3645305,-0.0003273,0.0022455,-0.0035024,0.0049379,0.0019089,,,,1.6842620,-4.2612839,-13.9082289,0.0000000,0.0000000,0.0000000,0.0229970,0.0002007,0.0000000,0.0000000,0.0000200,0.0000000,0.0000000,0.0000000,0.0002007,0.0000000,0.0000000,0.0000200,0.0000000,0.0000000,0.0000000,0.0002007,0.0000000,0.0000000,0.0000200,0.0000200,0.0000000,0.0000000,0.0000040,0.0000000,0.0000000,0.0000000,0.0000200,0.0000000,0.0000000,0.0000040,0.0000000,0.0000000,0.0000000,0.0000200,0.0000000,0.0000000,0.0000040
111.6525770,1.0002501,,-0.9311887,-0.3645306,-0.0003379,0.0022342,-0.0014155,0.0053910,-0.0049049,,,,1.6842620,-4.2612839,-13.9082289,0.0000000,0.0000000,0.0000000,0.0200050,0.0002015,0.0000000,0.0000000,0.0000201,0.0000000,0.0000000,0.0000000,0.0002015,0.0000000,0.0000000,0.0000201,0.0000000,0.0000000,0.0000000,0.0002015,0.0000000,0.0000000,0.0000201,0.0000201,0.0000000,0.0000000,0.0000040,0.0000000,0.0000000,0.0000000,0.0000201,0.0000000,0.0000000,0.0000040,0.0000000,0.0000000,0.0000000,0.0000201,0.0000000,0.0000000,0.0000040
111.6727800,1.0003999,,-0.9311887,-0.3645306,-0.0003486,0.0022203,-0.0030652,0.0058465,-0.0061146,,,,1.6842620,-4.2612839,-13.9082289,0.0000000,0.0000000,0.0000000,0.0200080,0.0002023,0.0000000,0.0000000,0.0000202,0.0000000,0.0000000,0.0000000,0.0002023,0.0000000,0.0000000,0.0000202,0.0000000,0.0000000,0.0000000,0.0002023,0.0000000,0.0000000,0.0000202,0.0000202,0.0000000,0.0000000,0.0000040,0.0000000,0.0000000,0.0000000,0.0000202,0.0000000,0.0000000,0.0000040,0.0000000,0.0000000,0.0000000,0.0000202,0.0000000,0.0000000,0.0000040
111.6936780,1.0497000,,-0.9311887,-0.3645307,-0.0003555,0.0021957,-0.0033866,0.0089657,-0.0047663,,,,1.6842620,-4.2612839,-13.9082289,0.0000000,0.0000000,0.0000000,0.0209940,0.0002031,0.0000000,0.0000000,0.0000203,0.0000000,0.0000000,0.0000000,0.0002031,0.0000000,0.0000000,0.0000203,0.0000000,0.0000000,0.0000000,0.0002031,0.0000000,0.0000000,0.0000203,0.0000203,0.0000000,0.0000000,0.0000040,0.0000000,0.0000000,0.0000000,0.0000203,0.0000000,0.0000000,0.0000040,0.0000000,0.0000000,0.0000000,0.0000203,0.0000000,0.0000000,0.0000040
111.7095290,,1.0001099,-0.9311887,-0.3645307,-0.0003555,0.0021957,,,,0.0000000,0.0000000,0.0000000,1.6842620,-4.2612839,-13.9082289,0.0000000,0.0000000,0.0000000,0.1000110,0.0001991,0.0000000,0.0000000,0.0000199,0.0000000,0.0000000,0.0000000,0.0001991,0.0000000,0.0000000,0.0000199,0.0000000,0.0000000,0.0000000,0.0001991,0.0000000,0.0000000,0.0000199,0.0000199,0.0000000,0.0000000,0.0000040,0.0000000,0.0000000,0.0000000,0.0000199,0.0000000,0.0000000,0.0000040,0.0000000,0.0000000,0.0000000,0.0000199,0.0000000,0.0000000,0.0000040
111.7233830,1.0998001,,-0.9311887,-0.3645307,-0.0003636,0.0021897,-0.0016094,-0.0014299,0.0039645,,,,1.6842620,-4.2612839,-13.9082289,0.0000000,0.0000000,0.0000000,0.0219960,0.0001999,0.0000000,0.0000000,0.0000200,0.0000000,0.0000000,0.0000000,0.0001999,0.0000000,0.0000000,0.0000200,0.0000000,0.0000000,0.0000000,0.0001999,0.0000000,0.0000000,0.0000200,0.0000200,0.0000000,0.0000000,0.0000040,0.0000000,0.0000000,0.0000000,0.0000200,0.0000000,0.0000000,0.0000040,0.0000000,0.0000000,0.0000000,0.0000200,0.0000000,0.0000000,0.0000040
111.7369160,1.0503000,,-0.9311887,-0.3645307,-0.0003669,0.0021801,0.0022166,0.0021537,-0.0011916,,,,1.6842620,-4.2612839,-13.9082289,0.0000000,0.0000000,0.0000000,0.0210060,0.0002008,0.0000000,0.0000000,0.0000201,0.0000000,0.0000000,0.0000000,0.0002008,0.0000000,0.0000000,0.0000201,0.0000000,0.0000000,0.0000000,0.0002008,0.0000000,0.0000000,0.0000201,0.0000201,0.0000000,0.0000000,0.0000040,0.0000000,0.0000000,0.0000000,0.0000201,0.0000000,0.0000000,0.0000040,0.0000000,0.0000000,0.0000000,0.0000201,0.0000000,0.0000000,0.0000040
111.7569970,0.9998000,,-0.9311887,-0.3645307,-0.0003670,0.0021850,-0.0002726,0.0032283,-0.0035255,,,,1.6842620,-4.2612839,-13.9082289,0.0000000,0.0000000,0.0000000,0.0199960,0.0002016,0.0000000,0.0000000,0.0000201,0.0000000,0.0000000,0.0000000,0.0002016,0.0000000,0.0000000,0.0000201,0.0000000,0.0000000,0.0000000,0.0002016,0.0000000,0.0000000,0.0000201,0.0000201,0.0000000,0.0000000,0.0000040,0.0000000,0.0000000,0.0000000,0.0000201,0.0000000,0.0000000,0.0000040,0.0000000,0.0000000,0.0000000,0.0000201,0.0000000,0.0000000,0.0000040
111.7769450,1.0002501,,-0.9311887,-0.3645307,-0.0003942,0.0021894,0.0099040,0.0061918,-0.0032276,,,,1.6842620,-4.2612839,-13.9082289,0.0000000,0.0000000,0.0000000,0.0200050,0.0002024,0.0000000,0.0000000,0.0000202,0.0000000,0.0000000,0.0000000,0.0002024,0.0000000,0.0000000,0.0000202,0.0000000,0.0000000,0.0000000,0.0002024,0.0000000,0.0000000,0.0000202,0.0000202,0.0000000,0.0000000,0.0000040,0.0000000,0.0000000,0.0000000,0.0000202,0.0000000,0.0000000,0.0000040,0.0000000,0.0000000,0.0000000,0.0000202,0.0000000,0.0000000,0.0000040
111.7966180,1.0003500,,-0.9311887,-0.3645307,-0.0003914,0.0021967,0.0059896,-0.0023133,-0.0001489,,,,1.6842620,-4.2612839,-13.9082289,0.0000000,0.0000000,0.0000000,0.0200070,0.0002032,0.0000000,0.0000000,0.0000203,0.0000000,0.0000000,0.0000000,0.0002032,0.0000000,0.0000000,0.0000203,0.0000000,0.0000000,0.0000000,0.0002032,0.0000000,0.0000000,0.0000203,0.0000203,0.0000000,0.0000000,0.0000040,0.0000000,0.0000000,0.0000000,0.0000203,0.0000000,0.0000000,0.0000040,0.0000000,0.0000000,0.0000000,0.0000203,0.0000000,0.0000000,0.0000040
111.8128710,,1.0198599,-0.9311887,-0.3645307,-0.0003914,0.0021967,,,,0.0000000,0.0000000,0.0000000,1.6842620,-4.2612839,-13.9082289,0.0000000,0.0000000,0.0000000,0.1019860,0.0001992,0.0000000,0.0000000,0.0000199,0.0000000,0.0000000,0.0000000,0.0001992,0.0000000,0.0000000,0.0000199,0.0000000,0.0000000,0.0000000,0.0001992,0.0000000,0.0000000,0.0000199,0.0000199,0.0000000,0.0000000,0.0000040,0.0000000,0.0000000,0.0000000,0.0000199,0.0000000,0.0000000,0.0000040,0.0000000,0.0000000,0.0000000,0.0000199,0.0000000,0.0000000,0.0000040
111.8264790,1.0993501,,-0.9311886,-0.3645307,-0.0003913,0.0022182,0.0052378,-0.0055588,-0.0030042,,,,1.6842620,-4.2612839,-13.9082289,0.0000000,0.0000000,0.0000000,0.0219870,0.0002000,0.0000000,0.0000000,0.0000200,0.0000000,0.0000000,0.0000000,0.0002000,0.0000000,0.0000000,0.0000200,0.0000000,0.0000000,0.0000000,0.0002000,0.0000000,0.0000000,0.0000200,0.0000200,0.0000000,0.0000000,0.0000040,0.0000000,0.0000000,0.0000000,0.0000200,0.0000000,0.0000000,0.0000040,0.0000000,0.0000000,0.0000000,0.0000200,0.0000000,0.0000000,0.0000040
111.8399220,1.0498999,,-0.9311886,-0.3645307,-0.0003934,0.0022233,0.0043737,0.0006233,-0.0017462,,,,1.6842620,-4.2612839,-13.9082289,0.0000000,0.0000000,0.0000000,0.0209980,0.0002009,0.0000000,0.0000000,0.0000201,0.0000000,0.0000000,0.0000000,0.0002009,0.0000000,0.0000000,0.0000201,0.0000000,0.0000000,0.0000000,0.0002009,0.0000000,0.0000000,0.0000201,0.0000201,0.0000000,0.0000000,0.0000040,0.0000000,0.0000000,0.0000000,0.0000201,0.0000000,0.0000000,0.0000040,0.0000000,0.0000000,0.0000000,0.0000201,0.0000000,0.0000000,0.0000040
111.8598690,1.0000000,,-0.9311887,-0.3645307,-0.0003807,0.0021983,-0.0052900,0.0029362,-0.0077090,,,,1.6842620,-4.2612839,-13.9082289,0.0000000,0.0000000,0.0000000,0.0200000,0.0002017,0.0000000,0.0000000,0.0000201,0.0000000,0.0000000,0.0000000,0.0002017,0.0000000,0.0000000,0.0000201,0.0000000,0.0000000,0.0000000,0.0002017,0.0000000,0.0000000,0.0000201,0.0000201,0.0000000,0.0000000,0.0000040,0.0000000,0.0000000,0.0000000,0.0000201,0.0000000,0.0000000,0.0000040,0.0000000,0.0000000,0.0000000,0.0000201,0.0000000,0.0000000,0.0000040
111.8798590,1.0006500,,-0.9311887,-0.3645307,-0.0003583,0.0022092,0.0006280,0.0019487,-0.0053194,,,,1.6842620,-4.2612839,-13.9082289,0.0000000,0.0000000,0.0000000,0.0200130,0.0002025,0.0000000,0.0000000,0.0000202,0.0000000,0.0000000,0.0000000,0.0002025,0.0000000,0.0000000,0.0000202,0.0000000,0.0000000,0.0000000,0.0002025,0.0000000,0.0000000,0.0000202,0.0000202,0.0000000,0.0000000,0.0000040,0.0000000,0.0000000,0.0000000,0.0000202,0.0000000,0.0000000,0.0000040,0.0000000,0.0000000,0.0000000,0.0000202,0.0000000,0.0000000,0.0000040
111.9008250,1.0495000,,-0.9311887,-0.3645307,-0.0003636,0.0021926,-0.0032642,0.0009133,0.0017348,,,,1.6842620,-4.2612839,-13.9082289,0.0000000,0.0000000,0.0000000,0.0209900,0.0002033,0.0000000,0.0000000,0.0000203,0.0000000,0.0000000,0.0000000,0.0002033,0.0000000,0.0000000,0.0000203,0.0000000,0.0000000,0.0000000,0.0002033,0.0000000,0.0000000,0.0000203,0.0000203,0.0000000,0.0000000,0.0000040,0.0000000,0.0000000,0.0000000,0.0000203,0.0000000,0.0000000,0.0000040,0.0000000,0.0000000,0.0000000,0.0000203,0.0000000,0.0000000,0.0000040
111.9168600,,1.0200601,-0.9311887,-0.3645307,-0.0003636,0.0021926,,,,0.0000000,0.0000000,0.0000000,1.6842620,-4.2612839,-13.9082289,0.0000000,0.0000000,0.0000000,0.1020060,0.0001993,0.0000000,0.0000000,0.0000199,0.0000000,0.0000000,0.0000000,0.0001993,0.0000000,0.0000000,0.0000199,0.0000000,0.0000000,0.0000000,0.0001993,0.0000000,0.0000000,0.0000199,0.0000199,0.0000000,0.0000000,0.0000040,0.0000000,0.0000000,0.0000000,0.0000199,0.0000000,0.0000000,0.0000040,0.0000000,0.0000000,0.0000000,0.0000199,0.0000000,0.0000000,0.0000040
111.9305740,1.1000000,,-0.9311887,-0.3645307,-0.0003719,0.0021838,-0.0008234,0.0018605,0.0042854,,,,1.6842620,-4.2612839,-13.9082289,0.0000000,0.0000000,0.0000000,0.0220000,0.0002001,0.0000000,0.0000000,0.0000200,0.0000000,0.0000000,0.0000000,0.0002001,0.0000000,0.0000000,0.0000200,0.0000000,0.0000000,0.0000000,0.0002001,0.0000000,0.0000000,0.0000200,0.0000200,0.0000000,0.0000000,0.0000040,0.0000000,0.0000000,0.0000000,0.0000200,0.0000000,0.0000000,0.0000040,0.0000000,0.0000000,0.0000000,0.0000200,0.0000000,0.0000000,0.0000040
111.9439870,1.0498000,,-0.9311887,-0.3645308,-0.0003961,0.0021753,0.0008548,0.0027994,0.0006779,,,,1.6842620,-4.2612839,-13.9082289,0.0000000,0.0000000,0.0000000,0.0209960,0.0002010,0.0000000,0.0000000,0.0000201,0.0000000,0.0000000,0.0000000,0.0002010,0.0000000,0.0000000,0.0000201,0.0000000,0.0000000,0.0000000,0.0002010,0.0000000,0.0000000,0.0000201,0.0000201,0.0000000,0.0000000,0.0000040,0.0000000,0.0000000,0.0000000,0.0000201,0.0000000,0.0000000,0.0000040,0.0000000,0.0000000,0.0000000,0.0000201,0.0000000,0.0000000,0.0000040
111.9637920,1.0005500,,-0.9311887,-0.3645308,-0.0004124,0.0021764,0.0011903,0.0052297,-0.0003935,,,,1.6842620,-4.2612839,-13.9082289,0.0000000,0.0000000,0.0000000,0.0200110,0.0002018,0.0000000,0.0000000,0.0000202,0.0000000,0.0000000,0.0000000,0.0002018,0.0000000,0.0000000,0.0000202,0.0000000,0.0000000,0.0000000,0.0002018,0.0000000,0.0000000,0.0000202,0.0000202,0.0000000,0.0000000,0.0000040,0.0000000,0.0000000,0.0000000,0.0000202,0.0000000,0.0000000,0.0000040,0.0000000,0.0000000,0.0000000,0.0000202,0.0000000,0.0000000,0.0000040
111.9836720,0.9995000,,-0.9311887,-0.3645307,-0.0003831,0.0021821,-0.0073623,0.0033091,0.0034654,,,,1.6842620,-4.2612839,-13.9082289,0.0000000,0.0000000,0.0000000,0.0199900,0.0002026,0.0000000,0.0000000,0.0000202,0.0000000,0.0000000,0.0000000,0.0002026,0.0000000,0.0000000,0.0000202,0.0000000,0.0000000,0.0000000,0.0002026,0.0000000,0.0000000,0.0000202,0.0000202,0.0000000,0.0000000,0.0000040,0.0000000,0.0000000,0.0000000,0.0000202,0.0000000,0.0000000,0.0000040,0.0000000,0.0000000,0.0000000,0.0000202,0.0000000,0.0000000,0.0000040
112.0051590,,0.9999500,-0.9311887,-0.3645307,-0.0003615,0.0021833,,,,0.0000000,0.0000000,0.0000000,1.6842620,-4.2612839,-13.9082289,0.0000000,0.0000000,0.0000000,0.0999950,0.0001986,0.0000000,0.0000000,0.0000198,0.0000000,0.0000000,0.0000000,0.0001986,0.0000000,0.0000000,0.0000198,0.0000000,0.0000000,0.0000000,0.0001986,0.0000000,0.0000000,0.0000198,0.0000198,0.0000000,0.0000000,0.0000040,0.0000000,0.0000000,0.0000000,0.0000198,0.0000000,0.0000000,0.0000040,0.0000000,0.0000000,0.0000000,0.0000198,0.0000000,0.0000000,0.0000040
112.0199690,1.0999500,,-0.9311887,-0.3645307,-0.0003615,0.0021833,0.0018044,0.0043020,0.0034417,,,,1.6842620,-4.2612839,-13.9082289,0.0000000,0.0000000,0.0000000,0.0219990,0.0001994,0.0000000,0.0000000,0.0000199,0.0000000,0.0000000,0.0000000,0.0001994,0.0000000,0.0000000,0.0000199,0.0000000,0.0000000,0.0000000,0.0001994,0.0000000,0.0000000,0.0000199,0.0000199,0.0000000,0.0000000,0.0000040,0.0000000,0.0000000,0.0000000,0.0000199,0.0000000,0.0000000,0.0000040,0.0000000,0.0000000,0.0000000,0.0000199,0.0000000,0.0000000,0.0000040
112.0326700,1.3499501,,-0.9311887,-0.3645307,-0.0003772,0.0021807,0.0004749,-0.0005956,0.0000118,,,,1.6842620,-4.2612839,-13.9082289,0.0000000,0.0000000,0.0000000,0.0269990,0.0002005,0.0000000,0.0000000,0.0000200,0.0000000,0.0000000,0.0000000,0.0002005,0.0000000,0.0000000,0.0000200,0.0000000,0.0000000,0.0000000,0.0002005,0.0000000,0.0000000,0.0000200,0.0000200,0.0000000,0.0000000,0.0000040,0.0000000,0.0000000,0.0000000,0.0000200,0.0000000,0.0000000,0.0000040,0.0000000,0.0000000,0.0000000,0.0000200,0.0000000,0.0000000,0.0000040
112.0526310,1.0002000,,-0.9311887,-0.3645308,-0.0003990,0.0021738,-0.0048437,0.0020597,0.0026915,,,,1.6842620,-4.2612839,-13.9082289,0.0000000,0.0000000,0.0000000,0.0200040,0.0002013,0.0000000,0.0000000,0.0000201,0.0000000,0.0000000,0.0000000,0.0002013,0.0000000,0.0000000,0.0000201,0.0000000,0.0000000,0.0000000,0.0002013,0.0000000,0.0000000,0.0000201,0.0000201,0.0000000,0.0000000,0.0000040,0.0000000,0.0000000,0.0000000,0.0000201,0.0000000,0.0000000,0.0000040,0.0000000,0.0000000,0.0000000,0.0000201,0.0000000,0.0000000,0.0000040
112.0738160,1.0504500,,-0.9311887,-0.3645308,-0.0004096,0.0021732,-0.0062900,0.0021742,0.0015899,,,,1.6842620,-4.2612839,-13.9082289,0.0000000,0.0000000,0.0000000,0.0210090,0.0002022,0.0000000,0.0000000,0.0000202,0.0000000,0.0000000,0.0000000,0.0002022,0.0000000,0.0000000,0.0000202,0.0000000,0.0000000,0.0000000,0.0002022,0.0000000,0.0000000,0.0000202,0.0000202,0.0000000,0.0000000,0.0000040,0.0000000,0.0000000,0.0000000,0.0000202,0.0000000,0.0000000,0.0000040,0.0000000,0.0000000,0.0000000,0.0000202,0.0000000,0.0000000,0.0000040
112.0962590,1.0494500,,-0.9311887,-0.3645309,-0.0004263,0.0021673,0.0000517,0.0036735,-0.0004258,,,,1.6842620,-4.2612839,-13.9082289,0.0000000,0.0000000,0.0000000,0.0209890,0.0002030,0.0000000,0.0000000,0.0000203,0.0000000,0.0000000,0.0000000,0.0002030,0.0000000,0.0000000,0.0000203,0.0000000,0.0000000,0.0000000,0.0002030,0.0000000,0.0000000,0.0000203,0.0000203,0.0000000,0.0000000,0.0000040,0.0000000,0.0000000,0.0000000,0.0000203,0.0000000,0.0000000,0.0000040,0.0000000,0.0000000,0.0000000,0.0000203,0.0000000,0.0000000,0.0000040
112.1118060,,1.0200000,-0.9311887,-0.3645309,-0.0004263,0.0021654,,,,0.0000000,0.0000000,0.0000000,1.6842620,-4.2612839,-13.9082289,0.0000000,0.0000000,0.0000000,0.1020000,0.0001990,0.0000000,0.0000000,0.0000199,0.0000000,0.0000000,0.0000000,0.0001990,0.0000000,0.0000000,0.0000199,0.0000000,0.0000000,0.0000000,0.0001990,0.0000000,0.0000000,0.0000199,0.0000199,0.0000000,0.0000000,0.0000040,0.0000000,0.0000000,0.0000000,0.0000199,0.0000000,0.0000000,0.0000040,0.0000000,0.0000000,0.0000000,0.0000199,0.0000000,0.0000000,0.0000040
112.1257760,1.0002501,,-0.9311887,-0.3645309,-0.0004291,0.0021654,0.0000564,0.0010128,-0.0024101,,,,1.6842620,-4.2612839,-13.9082289,0.0000000,0.0000000,0.0000000,0.0200050,0.0001998,0.0000000,0.0000000,0.0000200,0.0000000,0.0000000,0.0000000,0.0001998,0.0000000,0.0000000,0.0000200,0.0000000,0.0000000,0.0000000,0.0001998,0.0000000,0.0000000,0.0000200,0.0000200,0.0000000,0.0000000,0.0000040,0.0000000,0.0000000,0.0000000,0.0000200,0.0000000,0.0000000,0.0000040,0.0000000,0.0000000,0.0000000,0.0000200,0.0000000,0.0000000,0.0000040
112.1385950,1.1997001,,-0.9311887,-0.3645309,-0.0004443,0.0021578,0.0078560,0.0028334,-0.0031582,,,,1.6842620,-4.2612839,-13.9082289,0.0000000,0.0000000,0.0000000,0.0239940,0.0002007,0.0000000,0.0000000,0.0000201,0.0000000,0.0000000,0.0000000,0.0002007,0.0000000,0.0000000,0.0000201,0.0000000,0.0000000,0.0000000,0.0002007,0.0000000,0.0000000,0.0000201,0.0000201,0.0000000,0.0000000,0.0000040,0.0000000,0.0000000,0.0000000,0.0000201,0.0000000,0.0000000,0.0000040,0.0000000,0.0000000,0.0000000,0.0000201,0.0000000,0.0000000,0.0000040
112.1599940,1.0504500,,-0.9311887,-0.3645310,-0.0004611,0.0021544,0.0048969,0.0042243,-0.0023115,,,,1.6842620,-4.2612839,-13.9082289,0.0000000,0.0000000,0.0000000,0.0210090,0.0002016,0.0000000,0.0000000,0.0000201,0.0000000,0.0000000,0.0000000,0.0002016,0.0000000,0.0000000,0.0000201,0.0000000,0.0000000,0.0000000,0.0002016,0.0000000,0.0000000,0.0000201,0.0000201,0.0000000,0.0000000,0.0000040,0.0000000,0.0000000,0.0000000,0.0000201,0.0000000,0.0000000,0.0000040,0.0000000,0.0000000,0.0000000,0.0000201,0.0000000,0.0000000,0.0000040
112.1799560,0.9996500,,-0.9311886,-0.3645310,-0.0004794,0.0021817,0.0070414,0.0010593,-0.0026206,,,,1.6842620,-4.2612839,-13.9082289,0.0000000,0.0000000,0.0000000,0.0199930,0.0002024,0.0000000,0.0000000,0.0000202,0.0000000,0.0000000,0.0000000,0.0002024,0.0000000,0.0000000,0.0000202,0.0000000,0.0000000,0.0000000,0.0002024,0.0000000,0.0000000,0.0000202,0.0000202,0.0000000,0.0000000,0.0000040,0.0000000,0.0000000,0.0000000,0.0000202,0.0000000,0.0000000,0.0000040,0.0000000,0.0000000,0.0000000,0.0000202,0.0000000,0.0000000,0.0000040
112.1997730,1.0003500,,-0.9311886,-0.3645309,-0.0004814,0.0022034,0.0061681,0.0034059,0.0018635,,,,1.6842620,-4.2612839,-13.9082289,0.0000000,0.0000000,0.0000000,0.0200070,0.0002032,0.0000000,0.0000000,0.0000203,0.0000000,0.0000000,0.0000000,0.0002032,0.0000000,0.0000000,0.0000203,0.0000000,0.0000000,0.0000000,0.0002032,0.0000000,0.0000000,0.0000203,0.0000203,0.0000000,0.0000000,0.0000040,0.0000000,0.0000000,0.0000000,0.0000203,0.0000000,0.0000000,0.0000040,0.0000000,0.0000000,0.0000000,0.0000203,0.0000000,0.0000000,0.0000040
112.2158570,,1.0202100,-0.9311886,-0.3645309,-0.0004814,0.0022034,,,,0.0000000,0.0000000,0.0000000,1.6842620,-4.2612839,-13.9082289,0.0000000,0.0000000,0.0000000,0.1020210,0.0001991,0.0000000,0.0000000,0.0000199,0.0000000,0.0000000,0.0000000,0.0001991,0.0000000,0.0000000,0.0000199,0.0000000,0.0000000,0.0000000,0.0001991,0.0000000,0.0000000,0.0000199,0.0000199,0.0000000,0.0000000,0.0000040,0.0000000,0.0000000,0.0000000,0.0000199,0.0000000,0.0000000,0.0000040,0.0000000,0.0000000,0.0000000,0.0000199,0.0000000,0.0000000,0.0000040
112.2295030,1.0997001,,-0.9311886,-0.3645309,-0.0004463,0.0021965,0.0014208,0.0048158,0.0077677,,,,1.6842620,-4.2612839,-13.9082289,0.0000000,0.0000000,0.0000000,0.0219940,0.0002000,0.0000000,0.0000000,0.0000200,0.0000000,0.0000000,0.0000000,0.0002000,0.0000000,0.0000000,0.0000200,0.0000000,0.0000000,0.0000000,0.0002000,0.0000000,0.0000000,0.0000200,0.0000200,0.0000000,0.0000000,0.0000040,0.0000000,0.0000000,0.0000000,0.0000200,0.0000000,0.0000000,0.0000040,0.0000000,0.0000000,0.0000000,0.0000200,0.0000000,0.0000000,0.0000040
112.2427900,1.0498501,,-0.9311886,-0.3645308,-0.0004338,0.0022067,0.0061044,-0.0027572,0.0060811,,,,1.6842620,-4.2612839,-13.9082289,0.0000000,0.0000000,0.0000000,0.0209970,0.0002009,0.0000000,0.0000000,0.0000201,0.0000000,0.0000000,0.0000000,0.0002009,0.0000000,0.0000000,0.0000201,0.0000000,0.0000000,0.0000000,0.0002009,0.0000000,0.0000000,0.0000201,0.0000201,0.0000000,0.0000000,0.0000040,0.0000000,0.0000000,0.0000000,0.0000201,0.0000000,0.0000000,0.0000040,0.0000000,0.0000000,0.0000000,0.0000201,0.0000000,0.0000000,0.0000040
112.2630190,1.0004500,,-0.9311886,-0.3645308,-0.0004151,0.0021881,-0.0066524,-0.0041405,0.0064585,,,,1.6842620,-4.2612839,-13.9082289,0.0000000,0.0000000,0.0000000,0.0200090,0.0002017,0.0000000,0.0000000,0.0000201,0.0000000,0.0000000,0.0000000,0.0002017,0.0000000,0.0000000,0.0000201,0.0000000,0.0000000,0.0000000,0.0002017,0.0000000,0.0000000,0.0000201,0.0000201,0.0000000,0.0000000,0.0000040,0.0000000,0.0000000,0.0000000,0.0000201,0.0000000,0.0000000,0.0000040,0.0000000,0.0000000,0.0000000,0.0000201,0.0000000,0.0000000,0.0000040
112.2825460,0.9997500,,-0.9311887,-0.3645308,-0.0004085,0.0021769,-0.0018003,-0.0021465,0.0107976,,,,1.6842620,-4.2612839,-13.9082289,0.0000000,0.0000000,0.0000000,0.0199950,0.0002025,0.0000000,0.0000000,0.0000202,0.0000000,0.0000000,0.0000000,0.0002025,0.0000000,0.0000000,0.0000202,0.0000000,0.0000000,0.0000000,0.0002025,0.0000000,0.0000000,0.0000202,0.0000202,0.0000000,0.0000000,0.0000040,0.0000000,0.0000000,0.0000000,0.0000202,0.0000000,0.0000000,0.0000040,0.0000000,0.0000000,0.0000000,0.0000202,0.0000000,0.0000000,0.0000040
112.3028040,1.0006001,,-0.9311887,-0.3645308,-0.0004040,0.0021775,0.0018464,-0.0028509,0.0010043,,,,1.6842620,-4.2612839,-13.9082289,0.0000000,0.0000000,0.0000000,0.0200120,0.0002033,0.0000000,0.0000000,0.0000203,0.0000000,0.0000000,0.0000000,0.0002033,0.0000000,0.0000000,0.0000203,0.0000000,0.0000000,0.0000000,0.0002033,0.0000000,0.0000000,0.0000203,0.0000203,0.0000000,0.0000000,0.0000040,0.0000000,0.0000000,0.0000000,0.0000203,0.0000000,0.0000000,0.0000040,0.0000000,0.0000000,0.0000000,0.0000203,0.0000000,0.0000000,0.0000040
112.3190840,,1.0197901,-0.9311887,-0.3645308,-0.0004040,0.0021775,,,,0.0000000,0.0000000,0.0000000,1.6842620,-4.2612839,-13.9082289,0.0000000,0.0000000,0.0000000,0.1019790,0.0001992,0.0000000,0.0000000,0.0000199,0.0000000,0.0000000,0.0000000,0.0001992,0.0000000,0.0000000,0.0000199,0.0000000,0.0000000,0.0000000,0.0001992,0.0000000,0.0000000,0.0000199,0.0000199,0.0000000,0.0000000,0.0000040,0.0000000,0.0000000,0.0000000,0.0000199,0.0000000,0.0000000,0.0000040,0.0000000,0.0000000,0.0000000,0.0000199,0.0000000,0.0000000,0.0000040
112.3338110,1.0993000,,-0.9311887,-0.3645308,-0.0003965,0.0021727,0.0097809,-0.0012500,0.0024553,,,,1.6842620,-4.2612839,-13.9082289,0.0000000,0.0000000,0.0000000,0.0219860,0.0002001,0.0000000,0.0000000,0.0000200,0.0000000,0.0000000,0.0000000,0.0002001,0.0000000,0.0000000,0.0000200,0.0000000,0.0000000,0.0000000,0.0002001,0.0000000,0.0000000,0.0000200,0.0000200,0.0000000,0.0000000,0.0000040,0.0000000,0.0000000,0.0000000,0.0000200,0.0000000,0.0000000,0.0000040,0.0000000,0.0000000,0.0000000,0.0000200,0.0000000,0.0000000,0.0000040
112.3469400,1.0999500,,-0.9311887,-0.3645308,-0.0003783,0.0021706,0.0010834,0.0007788,0.0053780,,,,1.6842620,-4.2612839,-13.9082289,0.0000000,0.0000000,0.0000000,0.0219990,0.0002010,0.0000000,0.0000000,0.0000201,0.0000000,0.0000000,0.0000000,0.0002010,0.0000000,0.0000000,0.0000201,0.0000000,0.0000000,0.0000000,0.0002010,0.0000000,0.0000000,0.0000201,0.0000201,0.0000000,0.0000000,0.0000040,0.0000000,0.0000000,0.0000000,0.0000201,0.0000000,0.0000000,0.0000040,0.0000000,0.0000000,0.0000000,0.0000201,0.0000000,0.0000000,0.0000040
112.3670950,1.0001501,,-0.9311887,-0.3645308,-0.0003658,0.0021712,-0.0008163,0.0003360,0.0017124,,,,1.6842620,-4.2612839,-13.9082289,0.0000000,0.0000000,0.0000000,0.0200030,0.0002018,0.0000000,0.0000000,0.0000202,0.0000000,0.0000000,0.0000000,0.0002018,0.0000000,0.0000000,0.0000202,0.0000000,0.0000000,0.0000000,0.0002018,0.0000000,0.0000000,0.0000202,0.0000202,0.0000000,0.0000000,0.0000040,0.0000000,0.0000000,0.0000000,0.0000202,0.0000000,0.0000000,0.0000040,0.0000000,0.0000000,0.0000000,0.0000202,0.0000000,0.0000000,0.0000040
112.3869250,1.0002501,,-0.9311887,-0.3645307,-0.0003628,0.0021847,0.0004158,0.0011140,0.0072039,,,,1.6842620,-4.2612839,-13.9082289,0.0000000,0.0000000,0.0000000,0.0200050,0.0002026,0.0000000,0.0000000,0.0000202,0.0000000,0.0000000,0.0000000,0.0002026,0.0000000,0.0000000,0.0000202,0.0000000,0.0000000,0.0000000,0.0002026,0.0000000,0.0000000,0.0000202,0.0000202,0.0000000,0.0000000,0.0000040,0.0000000,0.0000000,0.0000000,0.0000202,0.0000000,0.0000000,0.0000040,0.0000000,0.0000000,0.0000000,0.0000202,0.0000000,0.0000000,0.0000040
112.4070570,0.9998500,,-0.9311887,-0.3645308,-0.0003733,0.0021866,-0.0007000,0.0019685,0.0087289,,,,1.6842620,-4.2612839,-13.9082289,0.0000000,0.0000000,0.0000000,0.0199970,0.0002034,0.0000000,0.0000000,0.0000203,0.0000000,0.0000000,0.0000000,0.0002034,0.0000000,0.0000000,0.0000203,0.0000000,0.0000000,0.0000000,0.0002034,0.0000000,0.0000000,0.0000203,0.0000203,0.0000000,0.0000000,0.0000040,0.0000000,0.0000000,0.0000000,0.0000203,0.0000000,0.0000000,0.0000040,0.0000000,0.0000000,0.0000000,0.0000203,0.0000000,0.0000000,0.0000040
112.4229140,,1.0000100,-0.9311887,-0.3645308,-0.0003733,0.0022092,,,,0.0000000,0.0000000,0.0000000,1.6842620,-4.2612839,-13.9082289,0.0000000,0.0000000,0.0000000,0.1000010,0.0001993,0.0000000,0.0000000,0.0000199,0.0000000,0.0000000,0.0000000,0.0001993,0.0000000,0.0000000,0.0000199,0.0000000,0.0000000,0.0000000,0.0001993,0.0000000,0.0000000,0.0000199,0.0000199,0.0000000,0.0000000,0.0000040,0.0000000,0.0000000,0.0000000,0.0000199,0.0000000,0.0000000,0.0000040,0.0000000,0.0000000,0.0000000,0.0000199,0.0000000,0.0000000,0.0000040
112.4367530,0.9999500,,-0.9311887,-0.3645307,-0.0003682,0.0022092,-0.0000296,0.0036698,0.0033879,,,,1.6842620,-4.2612839,-13.9082289,0.0000000,0.0000000,0.0000000,0.0199990,0.0002001,0.0000000,0.0000000,0.0000200,0.0000000,0.0000000,0.0000000,0.0002001,0.0000000,0.0000000,0.0000200,0.0000000,0.0000000,0.0000000,0.0002001,0.0000000,0.0000000,0.0000200,0.0000200,0.0000000,0.0000000,0.0000040,0.0000000,0.0000000,0.0000000,0.0000200,0.0000000,0.0000000,0.0000040,0.0000000,0.0000000,0.0000000,0.0000200,0.0000000,0.0000000,0.0000040
112.4497920,1.1497999,,-0.9311887,-0.3645307,-0.0003630,0.0021875,-0.0008922,0.0032387,0.0002291,,,,1.6842620,-4.2612839,-13.9082289,0.0000000,0.0000000,0.0000000,0.0229960,0.0002011,0.0000000,0.0000000,0.0000201,0.0000000,0.0000000,0.0000000,0.0002011,0.0000000,0.0000000,0.0000201,0.0000000,0.0000000,0.0000000,0.0002011,0.0000000,0.0000000,0.0000201,0.0000201,0.0000000,0.0000000,0.0000040,0.0000000,0.0000000,0.0000000,0.0000201,0.0000000,0.0000000,0.0000040,0.0000000,0.0000000,0.0000000,0.0000201,0.0000000,0.0000000,0.0000040
112.4709570,1.0504500,,-0.9311887,-0.3645307,-0.0003437,0.0021909,-0.0025213,-0.0025539,0.0025560,,,,1.6842620,-4.2612839,-13.9082289,0.0000000,0.0000000,0.0000000,0.0210090,0.0002019,0.0000000,0.0000000,0.0000202,0.0000000,0.0000000,0.0000000,0.0002019,0.0000000,0.0000000,0.0000202,0.0000000,0.0000000,0.0000000,0.0002019,0.0000000,0.0000000,0.0000202,0.0000202,0.0000000,0.0000000,0.0000040,0.0000000,0.0000000,0.0000000,0.0000202,0.0000000,0.0000000,0.0000040,0.0000000,0.0000000,0.0000000,0.0000202,0.0000000,0.0000000,0.0000040
112.4908800,0.9996000,,-0.9311887,-0.3645307,-0.0003304,0.0022021,-0.0016268,-0.0064115,0.0044518,,,,1.6842620,-4.2612839,-13.9082289,0.0000000,0.0000000,0.0000000,0.0199920,0.0002027,0.0000000,0.0000000,0.0000202,0.0000000,0.0000000,0.0000000,0.0002027,0.0000000,0.0000000,0.0000202,0.0000000,0.0000000,0.0000000,0.0002027,0.0000000,0.0000000,0.0000202,0.0000202,0.0000000,0.0000000,0.0000040,0.0000000,0.0000000,0.0000000,0.0000202,0.0000000,0.0000000,0.0000040,0.0000000,0.0000000,0.0000000,0.0000202,0.0000000,0.0000000,0.0000040
112.5122150,,0.9999900,-0.9311887,-0.3645307,-0.0003467,0.0022034,,,,0.0000000,0.0000000,0.0000000,1.6842620,-4.2612839,-13.9082289,0.0000000,0.0000000,0.0000000,0.0999990,0.0001987,0.0000000,0.0000000,0.0000198,0.0000000,0.0000000,0.0000000,0.0001987,0.0000000,0.0000000,0.0000198,0.0000000,0.0000000,0.0000000,0.0001987,0.0000000,0.0000000,0.0000198,0.0000198,0.0000000,0.0000000,0.0000040,0.0000000,0.0000000,0.0000000,0.0000198,0.0000000,0.0000000,0.0000040,0.0000000,0.0000000,0.0000000,0.0000198,0.0000000,0.0000000,0.0000040
112.5257850,0.9999000,,-0.9311887,-0.3645307,-0.0003467,0.0022034,-0.0012178,-0.0042129,0.0039349,,,,1.6842620,-4.2612839,-13.9082289,0.0000000,0.0000000,0.0000000,0.0199980,0.0001995,0.0000000,0.0000000,0.0000199,0.0000000,0.0000000,0.0000000,0.0001995,0.0000000,0.0000000,0.0000199,0.0000000,0.0000000,0.0000000,0.0001995,0.0000000,0.0000000,0.0000199,0.0000199,0.0000000,0.0000000,0.0000040,0.0000000,0.0000000,0.0000000,0.0000199,0.0000000,0.0000000,0.0000040,0.0000000,0.0000000,0.0000000,0.0000199,0.0000000,0.0000000,0.0000040
112.5389910,1.4000001,,-0.9311887,-0.3645308,-0.0003707,0.0021948,-0.0029893,-0.0019233,0.0061178,,,,1.6842620,-4.2612839,-13.9082289,0.0000000,0.0000000,0.0000000,0.0280000,0.0002006,0.0000000,0.0000000,0.0000200,0.0000000,0.0000000,0.0000000,0.0002006,0.0000000,0.0000000,0.0000200,0.0000000,0.0000000,0.0000000,0.0002006,0.0000000,0.0000000,0.0000200,0.0000200,0.0000000,0.0000000,0.0000040,0.0000000,0.0000000,0.0000000,0.0000200,0.0000000,0.0000000,0.0000040,0.0000000,0.0000000,0.0000000,0.0000200,0.0000000,0.0000000,0.0000040
112.5587050,1.0001000,,-0.9311887,-0.3645308,-0.0003757,0.0022026,-0.0060723,0.0007168,-0.0006032,,,,1.6842620,-4.2612839,-13.9082289,0.0000000,0.0000000,0.0000000,0.0200020,0.0002014,0.0000000,0.0000000,0.0000201,0.0000000,0.0000000,0.0000000,0.0002014,0.0000000,0.0000000,0.0000201,0.0000000,0.0000000,0.0000000,0.0002014,0.0000000,0.0000000,0.0000201,0.0000201,0.0000000,0.0000000,0.0000040,0.0000000,0.0000000,0.0000000,0.0000201,0.0000000,0.0000000,0.0000040,0.0000000,0.0000000,0.0000000,0.0000201,0.0000000,0.0000000,0.0000040
112.5797130,1.0500000,,-0.9311887,-0.3645308,-0.0003728,0.0021999,-0.0085751,-0.0006563,-0.0042078,,,,1.6842620,-4.2612839,-13.9082289,0.0000000,0.0000000,0.0000000,0.0210000,0.0002022,0.0000000,0.0000000,0.0000202,0.0000000,0.0000000,0.0000000,0.0002022,0.0000000,0.0000000,0.0000202,0.0000000,0.0000000,0.0000000,0.0002022,0.0000000,0.0000000,0.0000202,0.0000202,0.0000000,0.0000000,0.0000040,0.0000000,0.0000000,0.0000000,0.0000202,0.0000000,0.0000000,0.0000040,0.0000000,0.0000000,0.0000000,0.0000202,0.0000000,0.0000000,0.0000040
112.6009030,1.0501001,,-0.9311868,-0.3645349,-0.0003636,0.0022930,0.0079424,-0.0419312,-0.0348188,,,,1.6842620,-4.2612839,-13.9082289,0.0000000,0.0000000,0.0000000,0.0210020,0.0002031,0.0000000,0.0000000,0.0000203,0.0000000,0.0000000,0.0000000,0.0002031,0.0000000,0.0000000,0.0000203,0.0000000,0.0000000,0.0000000,0.0002031,0.0000000,0.0000000,0.0000203,0.0000203,0.0000000,0.0000000,0.0000040,0.0000000,0.0000000,0.0000000,0.0000203,0.0000000,0.0000000,0.0000040,0.0000000,0.0000000,0.0000000,0.0000203,0.0000000,0.0000000,0.0000040
112.6167920,,1.0200000,-0.9311868,-0.3645349,-0.0003636,0.0022930,,,,0.0000000,0.0000000,0.0000000,1.6842620,-4.2612839,-13.9082289,0.0000000,0.0000000,0.0000000,0.1020000,0.0001990,0.0000000,0.0000000,0.0000199,0.0000000,0.0000000,0.0000000,0.0001990,0.0000000,0.0000000,0.0000199,0.0000000,0.0000000,0.0000000,0.0001990,0.0000000,0.0000000,0.0000199,0.0000199,0.0000000,0.0000000,0.0000040,0.0000000,0.0000000,0.0000000,0.0000199,0.0000000,0.0000000,0.0000040,0.0000000,0.0000000,0.0000000,0.0000199,0.0000000,0.0000000,0.0000040
112.6307280,1.0999000,,-0.9311241,-0.3646908,-0.0000375,0.0028516,0.0210687,0.0538482,-0.0808936,,,,1.6842747,-4.2612901,-13.9082098,0.0011482,-0.0005642,0.0017742,0.0219980,0.0001999,0.0000000,0.0000000,0.0000200,0.0000000,0.0000000,0.0000000,0.0001999,0.0000000,0.0000000,0.0000200,0.0000000,0.0000000,0.0000000,0.0001999,0.0000000,0.0000000,0.0000200,0.0000200,0.0000000,0.0000000,0.0000040,0.0000000,0.0000000,0.0000000,0.0000200,0.0000000,0.0000000,0.0000040,0.0000000,0.0000000,0.0000000,0.0000200,0.0000000,0.0000000,0.0000040
112.6440320,1.0498999,,-0.9311136,-0.3647090,0.0002969,0.0037020,0.0695248,0.0768051,-0.1180988,,,,1.6842747,-4.2612901,-13.9082098,0.0000000,0.0000000,0.0000000,0.0209980,0.0002008,0.0000000,0.0000000,0.0000201,0.0000000,0.0000000,0.0000000,0.0002008,0.0000000,0.0000000,0.0000201,0.0000000,0.0000000,0.0000000,0.0002008,0.0000000,0.0000000,0.0000201,0.0000201,0.0000000,0.0000000,0.0000040,0.0000000,0.0000000,0.0000000,0.0000201,0.0000000,0.0000000,0.0000040,0.0000000,0.0000000,0.0000000,0.0000201,0.0000000,0.0000000,0.0000040
112.6639560,1.0001501,,-0.9310204,-0.3649435,0.0011899,0.0038006,-0.2017793,-0.2445564,0.1338065,,,,1.6842117,-4.2612815,-13.9082365,-0.0062986,0.0008625,-0.0026398,0.0200030,0.0002016,0.0000000,0.0000000,0.0000201,0.0000000,0.0000000,0.0000000,0.0002016,0.0000000,0.0000000,0.0000201,0.0000000,0.0000000,0.0000000,0.0002016,0.0000000,0.0000000,0.0000201,0.0000201,0.0000000,0.0000000,0.0000040,0.0000000,0.0000000,0.0000000,0.0000201,0.0000000,0.0000000,0.0000040,0.0000000,0.0000000,0.0000000,0.0000201,0.0000000,0.0000000,0.0000040
112.6848090,1.0500000,,-0.9309412,-0.3651460,0.0015925,0.0036715,-0.1699052,-0.3763065,0.0153743,,,,1.6839956,-4.2612281,-13.9082947,-0.0142894,0.0042335,-0.0028985,0.0210000,0.0002024,0.0000000,0.0000000,0.0000202,0.0000000,0.0000000,0.0000000,0.0002024,0.0000000,0.0000000,0.0000202,0.0000000,0.0000000,0.0000000,0.0002024,0.0000000,0.0000000,0.0000202,0.0000202,0.0000000,0.0000000,0.0000040,0.0000000,0.0000000,0.0000000,0.0000202,0.0000000,0.0000000,0.0000040,0.0000000,0.0000000,0.0000000,0.0000202,0.0000000,0.0000000,0.0000040
112.7059970,1.0500500,,-0.9309517,-0.3651110,0.0008161,0.0045184,-0.4616234,-0.6250353,-0.4771990,,,,1.6835277,-4.2611079,-13.9082489,-0.0302742,0.0071908,0.0072237,0.0210010,0.0002033,0.0000000,0.0000000,0.0000203,0.0000000,0.0000000,0.0000000,0.0002033,0.0000000,0.0000000,0.0000203,0.0000000,0.0000000,0.0000000,0.0002033,0.0000000,0.0000000,0.0000203,0.0000203,0.0000000,0.0000000,0.0000040,0.0000000,0.0000000,0.0000000,0.0000203,0.0000000,0.0000000,0.0000040,0.0000000,0.0000000,0.0000000,0.0000203,0.0000000,0.0000000,0.0000040
112.7217270,,1.0000499,-0.9309517,-0.3651110,0.0008161,0.0045184,,,,0.0000000,0.0000000,0.0000000,1.6835424,-4.2611113,-13.9082489,-0.0302727,0.0071905,0.0072238,0.1000050,0.0001992,0.0000000,0.0000000,0.0000199,0.0000000,0.0000000,0.0000000,0.0001992,0.0000000,0.0000000,0.0000199,0.0000000,0.0000000,0.0000000,0.0001992,0.0000000,0.0000000,0.0000199,0.0000199,0.0000000,0.0000000,0.0000040,0.0000000,0.0000000,0.0000000,0.0000199,0.0000000,0.0000000,0.0000040,0.0000000,0.0000000,0.0000000,0.0000199,0.0000000,0.0000000,0.0000040
112.7349680,1.1001501,,-0.9309859,-0.3650221,0.0003769,0.0047688,-0.4839169,-0.7934594,0.3219245,,,,1.6826595,-4.2608910,-13.9081669,-0.0499784,0.0128199,0.0002710,0.0220030,0.0002001,0.0000000,0.0000000,0.0000200,0.0000000,0.0000000,0.0000000,0.0002001,0.0000000,0.0000000,0.0000200,0.0000000,0.0000000,0.0000000,0.0002001,0.0000000,0.0000000,0.0000200,0.0000200,0.0000000,0.0000000,0.0000040,0.0000000,0.0000000,0.0000000,0.0000200,0.0000000,0.0000000,0.0000040,0.0000000,0.0000000,0.0000000,0.0000200,0.0000000,0.0000000,0.0000040
112.7481320,0.9997000,,-0.9310232,-0.3649303,0.0001277,0.0045688,-0.0581129,-0.7435315,0.2471286,,,,1.6815505,-4.2605329,-13.9082098,-0.0609502,0.0229779,-0.0045456,0.0199940,0.0002009,0.0000000,0.0000000,0.0000201,0.0000000,0.0000000,0.0000000,0.0002009,0.0000000,0.0000000,0.0000201,0.0000000,0.0000000,0.0000000,0.0002009,0.0000000,0.0000000,0.0000201,0.0000201,0.0000000,0.0000000,0.0000040,0.0000000,0.0000000,0.0000000,0.0000201,0.0000000,0.0000000,0.0000040,0.0000000,0.0000000,0.0000000,0.0000201,0.0000000,0.0000000,0.0000040
112.7677850,1.0001501,,-0.9311990,-0.3644836,0.0000942,0.0044138,-0.0288352,-0.7750021,-0.0646834,,,,1.6802219,-4.2599635,-13.9082861,-0.0718926,0.0339586,-0.0031250,0.0200030,0.0002017,0.0000000,0.0000000,0.0000201,0.0000000,0.0000000,0.0000000,0.0002017,0.0000000,0.0000000,0.0000201,0.0000000,0.0000000,0.0000000,0.0002017,0.0000000,0.0000000,0.0000201,0.0000201,0.0000000,0.0000000,0.0000040,0.0000000,0.0000000,0.0000000,0.0000201,0.0000000,0.0000000,0.0000040,0.0000000,0.0000000,0.0000000,0.0000201,0.0000000,0.0000000,0.0000040
112.7887690,1.0501001,,-0.9312545,-0.3643381,0.0004928,0.0046958,-0.2495250,-0.2382472,0.3973229,,,,1.6786356,-4.2592483,-13.9084387,-0.0791734,0.0341475,-0.0114368,0.0210020,0.0002025,0.0000000,0.0000000,0.0000202,0.0000000,0.0000000,0.0000000,0.0002025,0.0000000,0.0000000,0.0000202,0.0000000,0.0000000,0.0000000,0.0002025,0.0000000,0.0000000,0.0000202,0.0000202,0.0000000,0.0000000,0.0000040,0.0000000,0.0000000,0.0000000,0.0000202,0.0000000,0.0000000,0.0000040,0.0000000,0.0000000,0.0000000,0.0000202,0.0000000,0.0000000,0.0000040
112.8101490,1.0497000,,-0.9312569,-0.3643224,0.0006360,0.0053585,-0.4133367,0.9976138,0.4320294,,,,1.6770552,-4.2587538,-13.9087763,-0.0713822,0.0129626,-0.0207486,0.0209940,0.0002034,0.0000000,0.0000000,0.0000203,0.0000000,0.0000000,0.0000000,0.0002034,0.0000000,0.0000000,0.0000203,0.0000000,0.0000000,0.0000000,0.0002034,0.0000000,0.0000000,0.0000203,0.0000203,0.0000000,0.0000000,0.0000040,0.0000000,0.0000000,0.0000000,0.0000203,0.0000000,0.0000000,0.0000040,0.0000000,0.0000000,0.0000000,0.0000203,0.0000000,0.0000000,0.0000040
112.8272690,,0.9999400,-0.9312569,-0.3643224,0.0006360,0.0060197,,,,0.0000000,0.0000000,0.0000000,1.6771846,-4.2588010,-13.9087658,-0.0713692,0.0129579,-0.0207475,0.0999940,0.0001993,0.0000000,0.0000000,0.0000199,0.0000000,0.0000000,0.0000000,0.0001993,0.0000000,0.0000000,0.0000199,0.0000000,0.0000000,0.0000000,0.0001993,0.0000000,0.0000000,0.0000199,0.0000199,0.0000000,0.0000000,0.0000040,0.0000000,0.0000000,0.0000000,0.0000199,0.0000000,0.0000000,0.0000040,0.0000000,0.0000000,0.0000000,0.0000199,0.0000000,0.0000000,0.0000040
112.8400860,1.0001501,,-0.9312232,-0.3643980,0.0006695,0.0060197,-0.2855945,-0.0203429,0.0121191,,,,1.6757122,-4.2585773,-13.9091835,-0.0758424,0.0093822,-0.0210031,0.0200030,0.0002001,0.0000000,0.0000000,0.0000200,0.0000000,0.0000000,0.0000000,0.0002001,0.0000000,0.0000000,0.0000200,0.0000000,0.0000000,0.0000000,0.0002001,0.0000000,0.0000000,0.0000200,0.0000200,0.0000000,0.0000000,0.0000040,0.0000000,0.0000000,0.0000000,0.0000200,0.0000000,0.0000000,0.0000040,0.0000000,0.0000000,0.0000000,0.0000200,0.0000000,0.0000000,0.0000040
112.8550880,1.2498500,,-0.9312885,-0.3642387,0.0005086,0.0055672,0.0099661,0.0538010,-0.0413266,,,,1.6738302,-4.2583532,-13.9096956,-0.0747418,0.0085530,-0.0199838,0.0249970,0.0002011,0.0000000,0.0000000,0.0000201,0.0000000,0.0000000,0.0000000,0.0002011,0.0000000,0.0000000,0.0000201,0.0000000,0.0000000,0.0000000,0.0002011,0.0000000,0.0000000,0.0000201,0.0000201,0.0000000,0.0000000,0.0000040,0.0000000,0.0000000,0.0000000,0.0000201,0.0000000,0.0000000,0.0000040,0.0000000,0.0000000,0.0000000,0.0000201,0.0000000,0.0000000,0.0000040
112.8751380,1.0000501,,-0.9313684,-0.3640396,0.0006014,0.0052305,0.0038539,0.2033455,-0.2631178,,,,1.6723636,-4.2582121,-13.9100428,-0.0719013,0.0055674,-0.0147627,0.0200010,0.0002019,0.0000000,0.0000000,0.0000202,0.0000000,0.0000000,0.0000000,0.0002019,0.0000000,0.0000000,0.0000202,0.0000000,0.0000000,0.0000000,0.0002019,0.0000000,0.0000000,0.0000202,0.0000202,0.0000000,0.0000000,0.0000040,0.0000000,0.0000000,0.0000000,0.0000202,0.0000000,0.0000000,0.0000040,0.0000000,0.0000000,0.0000000,0.0000202,0.0000000,0.0000000,0.0000040
112.8963000,1.0005001,,-0.9314462,-0.3638440,0.0003849,0.0049973,-0.0672716,0.1071507,-0.4496894,,,,1.6709299,-4.2581263,-13.9102488,-0.0713985,0.0029975,-0.0057894,0.0200100,0.0002027,0.0000000,0.0000000,0.0000203,0.0000000,0.0000000,0.0000000,0.0002027,0.0000000,0.0000000,0.0000203,0.0000000,0.0000000,0.0000000,0.0002027,0.0000000,0.0000000,0.0000203,0.0000203,0.0000000,0.0000000,0.0000040,0.0000000,0.0000000,0.0000000,0.0000203,0.0000000,0.0000000,0.0000040,0.0000000,0.0000000,0.0000000,0.0000203,0.0000000,0.0000000,0.0000040
112.9155650,,1.0100000,-0.9315743,-0.3635209,-0.0000665,0.0046061,,,,-0.6695940,-0.6278719,-0.0027544,1.6577491,-4.2706156,-13.9102736,-0.0727153,0.0017498,-0.0057919,0.1010000,0.0001987,0.0000000,0.0000000,0.0000198,0.0000000,0.0000000,0.0000000,0.0001987,0.0000000,0.0000000,0.0000198,0.0000000,0.0000000,0.0000000,0.0001987,0.0000000,0.0000000,0.0000198,0.0000198,0.0000000,0.0000000,0.0000040,0.0000000,0.0000000,0.0000000,0.0000198,0.0000000,0.0000000,0.0000040,0.0000000,0.0000000,0.0000000,0.0000198,0.0000000,0.0000000,0.0000040
112.9289190,0.9995500,,-0.9315743,-0.3635209,-0.0000665,0.0046061,-0.3315408,0.3090304,-0.7749088,,,,1.6562890,-4.2706723,-13.9102354,-0.0733572,-0.0074177,0.0096229,0.0199910,0.0001995,0.0000000,0.0000000,0.0000199,0.0000000,0.0000000,0.0000000,0.0001995,0.0000000,0.0000000,0.0000199,0.0000000,0.0000000,0.0000000,0.0001995,0.0000000,0.0000000,0.0000199,0.0000199,0.0000000,0.0000000,0.0000040,0.0000000,0.0000000,0.0000000,0.0000199,0.0000000,0.0000000,0.0000040,0.0000000,0.0000000,0.0000000,0.0000199,0.0000000,0.0000000,0.0000040
112.9420810,1.3502500,,-0.9315833,-0.3635000,-0.0004353,0.0044245,-0.3533620,0.1542710,-0.1479677,,,,1.6542515,-4.2710018,-13.9099226,-0.0775469,-0.0169796,0.0135471,0.0270050,0.0002006,0.0000000,0.0000000,0.0000200,0.0000000,0.0000000,0.0000000,0.0002006,0.0000000,0.0000000,0.0000200,0.0000000,0.0000000,0.0000000,0.0002006,0.0000000,0.0000000,0.0000200,0.0000200,0.0000000,0.0000000,0.0000040,0.0000000,0.0000000,0.0000000,0.0000200,0.0000000,0.0000000,0.0000040,0.0000000,0.0000000,0.0000000,0.0000200,0.0000000,0.0000000,0.0000040
112.9632990,1.0001501,,-0.9315761,-0.3635228,-0.0010133,0.0038870,0.0027547,0.2823204,0.1533034,,,,1.6527389,-4.2713823,-13.9096823,-0.0736843,-0.0210723,0.0104442,0.0200030,0.0002014,0.0000000,0.0000000,0.0000201,0.0000000,0.0000000,0.0000000,0.0002014,0.0000000,0.0000000,0.0000201,0.0000000,0.0000000,0.0000000,0.0002014,0.0000000,0.0000000,0.0000201,0.0000201,0.0000000,0.0000000,0.0000040,0.0000000,0.0000000,0.0000000,0.0000201,0.0000000,0.0000000,0.0000040,0.0000000,0.0000000,0.0000000,0.0000201,0.0000000,0.0000000,0.0000040
112.9820640,0.9999000,,-0.9315194,-0.3636560,-0.0015010,0.0047210,-0.1731450,0.4131939,-0.0766991,,,,1.6512959,-4.2718883,-13.9094591,-0.0706317,-0.0295105,0.0118928,0.0199980,0.0002022,0.0000000,0.0000000,0.0000202,0.0000000,0.0000000,0.0000000,0.0002022,0.0000000,0.0000000,0.0000202,0.0000000,0.0000000,0.0000000,0.0002022,0.0000000,0.0000000,0.0000202,0.0000202,0.0000000,0.0000000,0.0000040,0.0000000,0.0000000,0.0000000,0.0000202,0.0000000,0.0000000,0.0000040,0.0000000,0.0000000,0.0000000,0.0000202,0.0000000,0.0000000,0.0000040
113.0032010,1.0000501,,-0.9314329,-0.3638793,-0.0020180,0.0044079,-0.2762088,0.3879553,0.1127506,,,,1.6498952,-4.2725730,-13.9092445,-0.0694319,-0.0389377,0.0095469,0.0200010,0.0002030,0.0000000,0.0000000,0.0000203,0.0000000,0.0000000,0.0000000,0.0002030,0.0000000,0.0000000,0.0000203,0.0000000,0.0000000,0.0000000,0.0002030,0.0000000,0.0000000,0.0000203,0.0000203,0.0000000,0.0000000,0.0000040,0.0000000,0.0000000,0.0000000,0.0000203,0.0000000,0.0000000,0.0000040,0.0000000,0.0000000,0.0000000,0.0000203,0.0000000,0.0000000,0.0000040
113.0191140,,1.0000600,-0.9314329,-0.3638793,-0.0020180,0.0038969,,,,-0.3054926,-0.2924596,-0.0029996,1.6439737,-4.2783527,-13.9093246,-0.0700234,-0.0395151,0.0095389,0.1000060,0.0001990,0.0000000,0.0000000,0.0000199,0.0000000,0.0000000,0.0000000,0.0001990,0.0000000,0.0000000,0.0000199,0.0000000,0.0000000,0.0000000,0.0001990,0.0000000,0.0000000,0.0000199,0.0000199,0.0000000,0.0000000,0.0000040,0.0000000,0.0000000,0.0000000,0.0000199,0.0000000,0.0000000,0.0000040,0.0000000,0.0000000,0.0000000,0.0000199,0.0000000,0.0000000,0.0000040
113.0328790,1.0006001,,-0.9314419,-0.3638581,-0.0026348,0.0038969,0.1420622,-0.0789487,0.0871218,,,,1.6425827,-4.2791123,-13.9091511,-0.0690006,-0.0364106,0.0078260,0.0200120,0.0001997,0.0000000,0.0000000,0.0000200,0.0000000,0.0000000,0.0000000,0.0001997,0.0000000,0.0000000,0.0000200,0.0000000,0.0000000,0.0000000,0.0001997,0.0000000,0.0000000,0.0000200,0.0000200,0.0000000,0.0000000,0.0000040,0.0000000,0.0000000,0.0000000,0.0000200,0.0000000,0.0000000,0.0000040,0.0000000,0.0000000,0.0000000,0.0000200,0.0000000,0.0000000,0.0000040
113.0458490,1.1990000,,-0.9313893,-0.3639932,-0.0029549,0.0036779,0.0340133,0.1505434,0.2300691,,,,1.6425827,-4.2791123,-13.9091511,0.0000000,0.0000000,0.0000000,0.0239800,0.0002007,0.0000000,0.0000000,0.0000201,0.0000000,0.0000000,0.0000000,0.0002007,0.0000000,0.0000000,0.0000201,0.0000000,0.0000000,0.0000000,0.0002007,0.0000000,0.0000000,0.0000201,0.0000201,0.0000000,0.0000000,0.0000040,0.0000000,0.0000000,0.0000000,0.0000201,0.0000000,0.0000000,0.0000040,0.0000000,0.0000000,0.0000000,0.0000201,0.0000000,0.0000000,0.0000040
113.0667920,1.0501500,,-0.9313558,-0.3640797,-0.0030694,0.0035433,-0.0167382,0.1996079,0.0134568,,,,1.6425827,-4.2791123,-13.9091511,0.0000000,0.0000000,0.0000000,0.0210030,0.0002015,0.0000000,0.0000000,0.0000201,0.0000000,0.0000000,0.0000000,0.0002015,0.0000000,0.0000000,0.0000201,0.0000000,0.0000000,0.0000000,0.0002015,0.0000000,0.0000000,0.0000201,0.0000201,0.0000000,0.0000000,0.0000040,0.0000000,0.0000000,0.0000000,0.0000201,0.0000000,0.0000000,0.0000040,0.0000000,0.0000000,0.0000000,0.0000201,0.0000000,0.0000000,0.0000040
113.0894750,1.0500500,,-0.9313004,-0.3642240,-0.0031986,0.0031231,-0.0788571,0.2317238,0.1212151,,,,1.6426046,-4.2791615,-13.9091778,0.0020942,-0.0046779,-0.0025761,0.0210010,0.0002024,0.0000000,0.0000000,0.0000202,0.0000000,0.0000000,0.0000000,0.0002024,0.0000000,0.0000000,0.0000202,0.0000000,0.0000000,0.0000000,0.0002024,0.0000000,0.0000000,0.0000202,0.0000202,0.0000000,0.0000000,0.0000040,0.0000000,0.0000000,0.0000000,0.0000202,0.0000000,0.0000000,0.0000040,0.0000000,0.0000000,0.0000000,0.0000202,0.0000000,0.0000000,0.0000040
113.1081000,1.0002501,,-0.9312297,-0.3644094,-0.0030690,0.0026613,-0.0993574,0.1988697,0.0413128,,,,1.6426589,-4.2792978,-13.9092379,0.0033378,-0.0089426,-0.0034286,0.0200050,0.0002032,0.0000000,0.0000000,0.0000203,0.0000000,0.0000000,0.0000000,0.0002032,0.0000000,0.0000000,0.0000203,0.0000000,0.0000000,0.0000000,0.0002032,0.0000000,0.0000000,0.0000203,0.0000203,0.0000000,0.0000000,0.0000040,0.0000000,0.0000000,0.0000000,0.0000203,0.0000000,0.0000000,0.0000040,0.0000000,0.0000000,0.0000000,0.0000203,0.0000000,0.0000000,0.0000040
113.1259100,,1.0199599,-0.9312297,-0.3644094,-0.0030690,0.0020000,,,,-0.0228080,-0.0107021,-0.0001631,1.6422309,-4.2794924,-13.9092426,0.0032951,-0.0089621,-0.0034291,0.1019960,0.0001992,0.0000000,0.0000000,0.0000199,0.0000000,0.0000000,0.0000000,0.0001992,0.0000000,0.0000000,0.0000199,0.0000000,0.0000000,0.0000000,0.0001992,0.0000000,0.0000000,0.0000199,0.0000199,0.0000000,0.0000000,0.0000040,0.0000000,0.0000000,0.0000000,0.0000199,0.0000000,0.0000000,0.0000040,0.0000000,0.0000000,0.0000000,0.0000199,0.0000000,0.0000000,0.0000040
113.1395370,1.0002999,,-0.9312260,-0.3644210,-0.0032785,0.0020000,-0.0275306,0.1846170,0.0387152,,,,1.6422309,-4.2794924,-13.9092426,0.0000000,0.0000000,0.0000000,0.0200060,0.0001999,0.0000000,0.0000000,0.0000200,0.0000000,0.0000000,0.0000000,0.0001999,0.0000000,0.0000000,0.0000200,0.0000000,0.0000000,0.0000000,0.0001999,0.0000000,0.0000000,0.0000200,0.0000200,0.0000000,0.0000000,0.0000040,0.0000000,0.0000000,0.0000000,0.0000200,0.0000000,0.0000000,0.0000040,0.0000000,0.0000000,0.0000000,0.0000200,0.0000000,0.0000000,0.0000040
113.1528340,1.2492501,,-0.9311838,-0.3645305,-0.0034242,0.0011548,-0.0242786,0.0974050,0.0281390,,,,1.6422309,-4.2794924,-13.9092426,0.0000000,0.0000000,0.0000000,0.0249850,0.0002009,0.0000000,0.0000000,0.0000201,0.0000000,0.0000000,0.0000000,0.0002009,0.0000000,0.0000000,0.0000201,0.0000000,0.0000000,0.0000000,0.0002009,0.0000000,0.0000000,0.0000201,0.0000201,0.0000000,0.0000000,0.0000040,0.0000000,0.0000000,0.0000000,0.0000201,0.0000000,0.0000000,0.0000040,0.0000000,0.0000000,0.0000000,0.0000201,0.0000000,0.0000000,0.0000040
113.1742330,1.0003999,,-0.9311628,-0.3645853,-0.0034873,0.0007156,-0.0187158,0.0466959,0.0194330,,,,1.6422309,-4.2794924,-13.9092426,0.0000000,0.0000000,0.0000000,0.0200080,0.0002018,0.0000000,0.0000000,0.0000202,0.0000000,0.0000000,0.0000000,0.0002018,0.0000000,0.0000000,0.0000202,0.0000000,0.0000000,0.0000000,0.0002018,0.0000000,0.0000000,0.0000202,0.0000202,0.0000000,0.0000000,0.0000040,0.0000000,0.0000000,0.0000000,0.0000202,0.0000000,0.0000000,0.0000040,0.0000000,0.0000000,0.0000000,0.0000202,0.0000000,0.0000000,0.0000040
113.1927530,0.9999500,,-0.9311524,-0.3646128,-0.0034753,0.0005026,-0.0119519,0.0216237,0.0123944,,,,1.6422309,-4.2794924,-13.9092426,0.0000000,0.0000000,0.0000000,0.0199990,0.0002026,0.0000000,0.0000000,0.0000202,0.0000000,0.0000000,0.0000000,0.0002026,0.0000000,0.0000000,0.0000202,0.0000000,0.0000000,0.0000000,0.0002026,0.0000000,0.0000000,0.0000202,0.0000202,0.0000000,0.0000000,0.0000040,0.0000000,0.0000000,0.0000000,0.0000202,0.0000000,0.0000000,0.0000040,0.0000000,0.0000000,0.0000000,0.0000202,0.0000000,0.0000000,0.0000040
113.2128930,1.0000501,,-0.9311473,-0.3646265,-0.0034217,0.0003936,-0.0101874,0.0066767,0.0118048,,,,1.6422309,-4.2794924,-13.9092426,0.0000000,0.0000000,0.0000000,0.0200010,0.0002034,0.0000000,0.0000000,0.0000203,0.0000000,0.0000000,0.0000000,0.0002034,0.0000000,0.0000000,0.0000203,0.0000000,0.0000000,0.0000000,0.0002034,0.0000000,0.0000000,0.0000203,0.0000203,0.0000000,0.0000000,0.0000040,0.0000000,0.0000000,0.0000000,0.0000203,0.0000000,0.0000000,0.0000040,0.0000000,0.0000000,0.0000000,0.0000203,0.0000000,0.0000000,0.0000040
113.2289160,,1.0000401,-0.9311473,-0.3646265,-0.0034217,0.0003936,,,,-0.0004561,-0.0002143,-0.0000035,1.6422218,-4.2794967,-13.9092426,-0.0000009,-0.0000004,-0.0000000,0.1000040,0.0001993,0.0000000,0.0000000,0.0000199,0.0000000,0.0000000,0.0000000,0.0001993,0.0000000,0.0000000,0.0000199,0.0000000,0.0000000,0.0000000,0.0001993,0.0000000,0.0000000,0.0000199,0.0000199,0.0000000,0.0000000,0.0000040,0.0000000,0.0000000,0.0000000,0.0000199,0.0000000,0.0000000,0.0000040,0.0000000,0.0000000,0.0000000,0.0000199,0.0000000,0.0000000,0.0000040
