t,predict_cpu,update_cpu,quat_x,quat_y,quat_z,quat_w,accel_x,accel_y,accel_z,of_x,of_y,of_z,x_x,x_y,x_z,x_vx,x_vy,x_vz,dt,P_0,P_1,P_2,P_3,P_4,P_5,P_6,P_7,P_8,P_9,P_10,P_11,P_12,P_13,P_14,P_15,P_16,P_17,P_18,P_19,P_20,P_21,P_22,P_23,P_24,P_25,P_26,P_27,P_28,P_29,P_30,P_31,P_32,P_33,P_34,P_35
286.7546770,1.1496500,,-0.9751924,-0.2213422,-0.0001301,0.0027237,-0.0017620,-0.0038433,0.0019826,,,,0.9720393,-4.2246780,-11.5927038,0.0000000,0.0000000,0.0000000,0.0229930,0.0002010,0.0000000,0.0000000,0.0000201,0.0000000,0.0000000,0.0000000,0.0002010,0.0000000,0.0000000,0.0000201,0.0000000,0.0000000,0.0000000,0.0002010,0.0000000,0.0000000,0.0000201,0.0000201,0.0000000,0.0000000,0.0000040,0.0000000,0.0000000,0.0000000,0.0000201,0.0000000,0.0000000,0.0000040,0.0000000,0.0000000,0.0000000,0.0000201,0.0000000,0.0000000,0.0000040
286.7757240,1.0504500,,-0.9751924,-0.2213421,-0.0001118,0.0027175,-0.0106009,-0.0058889,-0.0009618,,,,0.9720393,-4.2246780,-11.5927038,0.0000000,0.0000000,0.0000000,0.0210090,0.0002019,0.0000000,0.0000000,0.0000202,0.0000000,0.0000000,0.0000000,0.0002019,0.0000000,0.0000000,0.0000202,0.0000000,0.0000000,0.0000000,0.0002019,0.0000000,0.0000000,0.0000202,0.0000202,0.0000000,0.0000000,0.0000040,0.0000000,0.0000000,0.0000000,0.0000202,0.0000000,0.0000000,0.0000040,0.0000000,0.0000000,0.0000000,0.0000202,0.0000000,0.0000000,0.0000040
286.7968560,1.0495499,,-0.9751924,-0.2213421,-0.0000919,0.0027053,-0.0054759,-0.0059428,-0.0029223,,,,0.9720393,-4.2246780,-11.5927038,0.0000000,0.0000000,0.0000000,0.0209910,0.0002027,0.0000000,0.0000000,0.0000202,0.0000000,0.0000000,0.0000000,0.0002027,0.0000000,0.0000000,0.0000202,0.0000000,0.0000000,0.0000000,0.0002027,0.0000000,0.0000000,0.0000202,0.0000202,0.0000000,0.0000000,0.0000040,0.0000000,0.0000000,0.0000000,0.0000202,0.0000000,0.0000000,0.0000040,0.0000000,0.0000000,0.0000000,0.0000202,0.0000000,0.0000000,0.0000040
286.8181020,,1.0101000,-0.9751924,-0.2213421,-0.0000940,0.0027210,,,,0.0000000,0.0000000,0.0000000,0.9720393,-4.2246780,-11.5927038,0.0000000,0.0000000,0.0000000,0.1010100,0.0001987,0.0000000,0.0000000,0.0000198,0.0000000,0.0000000,0.0000000,0.0001987,0.0000000,0.0000000,0.0000198,0.0000000,0.0000000,0.0000000,0.0001987,0.0000000,0.0000000,0.0000198,0.0000198,0.0000000,0.0000000,0.0000040,0.0000000,0.0000000,0.0000000,0.0000198,0.0000000,0.0000000,0.0000040,0.0000000,0.0000000,0.0000000,0.0000198,0.0000000,0.0000000,0.0000040
286.8317070,0.9999500,,-0.9751924,-0.2213421,-0.0000940,0.0027210,-0.0007467,-0.0078847,-0.0075647,,,,0.9720393,-4.2246780,-11.5927038,0.0000000,0.0000000,0.0000000,0.0199990,0.0001995,0.0000000,0.0000000,0.0000199,0.0000000,0.0000000,0.0000000,0.0001995,0.0000000,0.0000000,0.0000199,0.0000000,0.0000000,0.0000000,0.0001995,0.0000000,0.0000000,0.0000199,0.0000199,0.0000000,0.0000000,0.0000040,0.0000000,0.0000000,0.0000000,0.0000199,0.0000000,0.0000000,0.0000040,0.0000000,0.0000000,0.0000000,0.0000199,0.0000000,0.0000000,0.0000040
286.8460780,1.4000001,,-0.9751924,-0.2213421,-0.0000903,0.0027209,0.0026021,-0.0030116,-0.0006085,,,,0.9720393,-4.2246780,-11.5927038,0.0000000,0.0000000,0.0000000,0.0280000,0.0002006,0.0000000,0.0000000,0.0000200,0.0000000,0.0000000,0.0000000,0.0002006,0.0000000,0.0000000,0.0000200,0.0000000,0.0000000,0.0000000,0.0002006,0.0000000,0.0000000,0.0000200,0.0000200,0.0000000,0.0000000,0.0000040,0.0000000,0.0000000,0.0000000,0.0000200,0.0000000,0.0000000,0.0000040,0.0000000,0.0000000,0.0000000,0.0000200,0.0000000,0.0000000,0.0000040
286.8648620,1.0008500,,-0.9751924,-0.2213421,-0.0000960,0.0027350,0.0059703,-0.0037259,-0.0020132,,,,0.9720393,-4.2246780,-11.5927038,0.0000000,0.0000000,0.0000000,0.0200170,0.0002014,0.0000000,0.0000000,0.0000201,0.0000000,0.0000000,0.0000000,0.0002014,0.0000000,0.0000000,0.0000201,0.0000000,0.0000000,0.0000000,0.0002014,0.0000000,0.0000000,0.0000201,0.0000201,0.0000000,0.0000000,0.0000040,0.0000000,0.0000000,0.0000000,0.0000201,0.0000000,0.0000000,0.0000040,0.0000000,0.0000000,0.0000000,0.0000201,0.0000000,0.0000000,0.0000040
286.8848220,0.9998000,,-0.9751924,-0.2213421,-0.0000955,0.0027337,0.0066854,-0.0036101,0.0014348,,,,0.9720393,-4.2246780,-11.5927038,0.0000000,0.0000000,0.0000000,0.0199960,0.0002022,0.0000000,0.0000000,0.0000202,0.0000000,0.0000000,0.0000000,0.0002022,0.0000000,0.0000000,0.0000202,0.0000000,0.0000000,0.0000000,0.0002022,0.0000000,0.0000000,0.0000202,0.0000202,0.0000000,0.0000000,0.0000040,0.0000000,0.0000000,0.0000000,0.0000202,0.0000000,0.0000000,0.0000040,0.0000000,0.0000000,0.0000000,0.0000202,0.0000000,0.0000000,0.0000040
286.9046700,1.0001501,,-0.9751924,-0.2213421,-0.0000960,0.0027208,0.0024119,0.0008195,-0.0017240,,,,0.9720393,-4.2246780,-11.5927038,0.0000000,0.0000000,0.0000000,0.0200030,0.0002030,0.0000000,0.0000000,0.0000203,0.0000000,0.0000000,0.0000000,0.0002030,0.0000000,0.0000000,0.0000203,0.0000000,0.0000000,0.0000000,0.0002030,0.0000000,0.0000000,0.0000203,0.0000203,0.0000000,0.0000000,0.0000040,0.0000000,0.0000000,0.0000000,0.0000203,0.0000000,0.0000000,0.0000040,0.0000000,0.0000000,0.0000000,0.0000203,0.0000000,0.0000000,0.0000040
286.9209030,,0.9999000,-0.9751924,-0.2213421,-0.0000960,0.0027208,,,,0.0000000,0.0000000,0.0000000,0.9720393,-4.2246780,-11.5927038,0.0000000,0.0000000,0.0000000,0.0999900,0.0001990,0.0000000,0.0000000,0.0000199,0.0000000,0.0000000,0.0000000,0.0001990,0.0000000,0.0000000,0.0000199,0.0000000,0.0000000,0.0000000,0.0001990,0.0000000,0.0000000,0.0000199,0.0000199,0.0000000,0.0000000,0.0000040,0.0000000,0.0000000,0.0000000,0.0000199,0.0000000,0.0000000,0.0000040,0.0000000,0.0000000,0.0000000,0.0000199,0.0000000,0.0000000,0.0000040
286.9334290,1.0993501,,-0.9751924,-0.2213421,-0.0000870,0.0027183,0.0010228,0.0027977,0.0001146,,,,0.9720393,-4.2246780,-11.5927038,0.0000000,0.0000000,0.0000000,0.0219870,0.0001998,0.0000000,0.0000000,0.0000200,0.0000000,0.0000000,0.0000000,0.0001998,0.0000000,0.0000000,0.0000200,0.0000000,0.0000000,0.0000000,0.0001998,0.0000000,0.0000000,0.0000200,0.0000200,0.0000000,0.0000000,0.0000040,0.0000000,0.0000000,0.0000000,0.0000200,0.0000000,0.0000000,0.0000040,0.0000000,0.0000000,0.0000000,0.0000200,0.0000000,0.0000000,0.0000040
286.9476980,1.0498999,,-0.9751924,-0.2213421,-0.0000862,0.0027295,0.0010455,0.0013683,-0.0026283,,,,0.9720393,-4.2246780,-11.5927038,0.0000000,0.0000000,0.0000000,0.0209980,0.0002007,0.0000000,0.0000000,0.0000200,0.0000000,0.0000000,0.0000000,0.0002007,0.0000000,0.0000000,0.0000200,0.0000000,0.0000000,0.0000000,0.0002007,0.0000000,0.0000000,0.0000200,0.0000200,0.0000000,0.0000000,0.0000040,0.0000000,0.0000000,0.0000000,0.0000200,0.0000000,0.0000000,0.0000040,0.0000000,0.0000000,0.0000000,0.0000200,0.0000000,0.0000000,0.0000040
286.9678270,1.0000000,,-0.9751924,-0.2213421,-0.0001041,0.0027389,0.0022394,0.0021185,-0.0105915,,,,0.9720393,-4.2246780,-11.5927038,0.0000000,0.0000000,0.0000000,0.0200000,0.0002015,0.0000000,0.0000000,0.0000201,0.0000000,0.0000000,0.0000000,0.0002015,0.0000000,0.0000000,0.0000201,0.0000000,0.0000000,0.0000000,0.0002015,0.0000000,0.0000000,0.0000201,0.0000201,0.0000000,0.0000000,0.0000040,0.0000000,0.0000000,0.0000000,0.0000201,0.0000000,0.0000000,0.0000040,0.0000000,0.0000000,0.0000000,0.0000201,0.0000000,0.0000000,0.0000040
286.9877010,1.0006001,,-0.9751923,-0.2213422,-0.0001240,0.0027450,0.0018368,0.0000522,-0.0021219,,,,0.9720393,-4.2246780,-11.5927038,0.0000000,0.0000000,0.0000000,0.0200120,0.0002023,0.0000000,0.0000000,0.0000202,0.0000000,0.0000000,0.0000000,0.0002023,0.0000000,0.0000000,0.0000202,0.0000000,0.0000000,0.0000000,0.0002023,0.0000000,0.0000000,0.0000202,0.0000202,0.0000000,0.0000000,0.0000040,0.0000000,0.0000000,0.0000000,0.0000202,0.0000000,0.0000000,0.0000040,0.0000000,0.0000000,0.0000000,0.0000202,0.0000000,0.0000000,0.0000040
287.0086190,1.0495499,,-0.9751923,-0.2213421,-0.0001045,0.0027445,-0.0002565,-0.0058562,0.0055308,,,,0.9720393,-4.2246780,-11.5927038,0.0000000,0.0000000,0.0000000,0.0209910,0.0002031,0.0000000,0.0000000,0.0000203,0.0000000,0.0000000,0.0000000,0.0002031,0.0000000,0.0000000,0.0000203,0.0000000,0.0000000,0.0000000,0.0002031,0.0000000,0.0000000,0.0000203,0.0000203,0.0000000,0.0000000,0.0000040,0.0000000,0.0000000,0.0000000,0.0000203,0.0000000,0.0000000,0.0000040,0.0000000,0.0000000,0.0000000,0.0000203,0.0000000,0.0000000,0.0000040
287.0245440,,1.0000199,-0.9751923,-0.2213421,-0.0001045,0.0027445,,,,0.0000000,0.0000000,0.0000000,0.9720393,-4.2246780,-11.5927038,0.0000000,0.0000000,0.0000000,0.1000020,0.0001991,0.0000000,0.0000000,0.0000199,0.0000000,0.0000000,0.0000000,0.0001991,0.0000000,0.0000000,0.0000199,0.0000000,0.0000000,0.0000000,0.0001991,0.0000000,0.0000000,0.0000199,0.0000199,0.0000000,0.0000000,0.0000040,0.0000000,0.0000000,0.0000000,0.0000199,0.0000000,0.0000000,0.0000040,0.0000000,0.0000000,0.0000000,0.0000199,0.0000000,0.0000000,0.0000040
287.0377860,1.0999000,,-0.9751923,-0.2213421,-0.0001152,0.0027532,0.0042663,-0.0012344,0.0027578,,,,0.9720393,-4.2246780,-11.5927038,0.0000000,0.0000000,0.0000000,0.0219980,0.0002000,0.0000000,0.0000000,0.0000200,0.0000000,0.0000000,0.0000000,0.0002000,0.0000000,0.0000000,0.0000200,0.0000000,0.0000000,0.0000000,0.0002000,0.0000000,0.0000000,0.0000200,0.0000200,0.0000000,0.0000000,0.0000040,0.0000000,0.0000000,0.0000000,0.0000200,0.0000000,0.0000000,0.0000040,0.0000000,0.0000000,0.0000000,0.0000200,0.0000000,0.0000000,0.0000040
287.0508210,1.0005001,,-0.9751923,-0.2213422,-0.0001254,0.0027634,0.0028579,0.0035256,-0.0005819,,,,0.9720393,-4.2246780,-11.5927038,0.0000000,0.0000000,0.0000000,0.0200100,0.0002008,0.0000000,0.0000000,0.0000201,0.0000000,0.0000000,0.0000000,0.0002008,0.0000000,0.0000000,0.0000201,0.0000000,0.0000000,0.0000000,0.0002008,0.0000000,0.0000000,0.0000201,0.0000201,0.0000000,0.0000000,0.0000040,0.0000000,0.0000000,0.0000000,0.0000201,0.0000000,0.0000000,0.0000040,0.0000000,0.0000000,0.0000000,0.0000201,0.0000000,0.0000000,0.0000040
287.0708820,0.9998000,,-0.9751923,-0.2213422,-0.0001184,0.0027444,0.0014519,0.0097737,-0.0019999,,,,0.9720393,-4.2246780,-11.5927038,0.0000000,0.0000000,0.0000000,0.0199960,0.0002016,0.0000000,0.0000000,0.0000201,0.0000000,0.0000000,0.0000000,0.0002016,0.0000000,0.0000000,0.0000201,0.0000000,0.0000000,0.0000000,0.0002016,0.0000000,0.0000000,0.0000201,0.0000201,0.0000000,0.0000000,0.0000040,0.0000000,0.0000000,0.0000000,0.0000201,0.0000000,0.0000000,0.0000040,0.0000000,0.0000000,0.0000000,0.0000201,0.0000000,0.0000000,0.0000040
287.0907930,1.0000501,,-0.9751924,-0.2213422,-0.0001169,0.0027142,0.0019771,0.0087015,0.0055918,,,,0.9720393,-4.2246780,-11.5927038,0.0000000,0.0000000,0.0000000,0.0200010,0.0002024,0.0000000,0.0000000,0.0000202,0.0000000,0.0000000,0.0000000,0.0002024,0.0000000,0.0000000,0.0000202,0.0000000,0.0000000,0.0000000,0.0002024,0.0000000,0.0000000,0.0000202,0.0000202,0.0000000,0.0000000,0.0000040,0.0000000,0.0000000,0.0000000,0.0000202,0.0000000,0.0000000,0.0000040,0.0000000,0.0000000,0.0000000,0.0000202,0.0000000,0.0000000,0.0000040
287.1105740,0.9996500,,-0.9751924,-0.2213422,-0.0001289,0.0026943,0.0061232,0.0027791,0.0001104,,,,0.9720393,-4.2246780,-11.5927038,0.0000000,0.0000000,0.0000000,0.0199930,0.0002032,0.0000000,0.0000000,0.0000203,0.0000000,0.0000000,0.0000000,0.0002032,0.0000000,0.0000000,0.0000203,0.0000000,0.0000000,0.0000000,0.0002032,0.0000000,0.0000000,0.0000203,0.0000203,0.0000000,0.0000000,0.0000040,0.0000000,0.0000000,0.0000000,0.0000203,0.0000000,0.0000000,0.0000040,0.0000000,0.0000000,0.0000000,0.0000203,0.0000000,0.0000000,0.0000040
287.1272600,,1.0199599,-0.9751924,-0.2213422,-0.0001289,0.0026943,,,,0.0000000,0.0000000,0.0000000,0.9720393,-4.2246780,-11.5927038,0.0000000,0.0000000,0.0000000,0.1019960,0.0001991,0.0000000,0.0000000,0.0000199,0.0000000,0.0000000,0.0000000,0.0001991,0.0000000,0.0000000,0.0000199,0.0000000,0.0000000,0.0000000,0.0001991,0.0000000,0.0000000,0.0000199,0.0000199,0.0000000,0.0000000,0.0000040,0.0000000,0.0000000,0.0000000,0.0000199,0.0000000,0.0000000,0.0000040,0.0000000,0.0000000,0.0000000,0.0000199,0.0000000,0.0000000,0.0000040
287.1404950,1.1002001,,-0.9751924,-0.2213423,-0.0001535,0.0026813,0.0091346,-0.0004415,-0.0070249,,,,0.9720393,-4.2246780,-11.5927038,0.0000000,0.0000000,0.0000000,0.0220040,0.0002000,0.0000000,0.0000000,0.0000200,0.0000000,0.0000000,0.0000000,0.0002000,0.0000000,0.0000000,0.0000200,0.0000000,0.0000000,0.0000000,0.0002000,0.0000000,0.0000000,0.0000200,0.0000200,0.0000000,0.0000000,0.0000040,0.0000000,0.0000000,0.0000000,0.0000200,0.0000000,0.0000000,0.0000040,0.0000000,0.0000000,0.0000000,0.0000200,0.0000000,0.0000000,0.0000040
287.1539210,1.0500000,,-0.9751924,-0.2213424,-0.0001735,0.0027017,0.0013401,-0.0093226,-0.0074187,,,,0.9720393,-4.2246780,-11.5927038,0.0000000,0.0000000,0.0000000,0.0210000,0.0002009,0.0000000,0.0000000,0.0000201,0.0000000,0.0000000,0.0000000,0.0002009,0.0000000,0.0000000,0.0000201,0.0000000,0.0000000,0.0000000,0.0002009,0.0000000,0.0000000,0.0000201,0.0000201,0.0000000,0.0000000,0.0000040,0.0000000,0.0000000,0.0000000,0.0000201,0.0000000,0.0000000,0.0000040,0.0000000,0.0000000,0.0000000,0.0000201,0.0000000,0.0000000,0.0000040
287.1738130,0.9998000,,-0.9751924,-0.2213424,-0.0001873,0.0027205,0.0023103,-0.0064237,-0.0056625,,,,0.9720393,-4.2246780,-11.5927038,0.0000000,0.0000000,0.0000000,0.0199960,0.0002017,0.0000000,0.0000000,0.0000201,0.0000000,0.0000000,0.0000000,0.0002017,0.0000000,0.0000000,0.0000201,0.0000000,0.0000000,0.0000000,0.0002017,0.0000000,0.0000000,0.0000201,0.0000201,0.0000000,0.0000000,0.0000040,0.0000000,0.0000000,0.0000000,0.0000201,0.0000000,0.0000000,0.0000040,0.0000000,0.0000000,0.0000000,0.0000201,0.0000000,0.0000000,0.0000040
287.1935750,1.0004500,,-0.9751923,-0.2213424,-0.0001977,0.0027318,0.0013230,-0.0069274,0.0040047,,,,0.9720393,-4.2246780,-11.5927038,0.0000000,0.0000000,0.0000000,0.0200090,0.0002025,0.0000000,0.0000000,0.0000202,0.0000000,0.0000000,0.0000000,0.0002025,0.0000000,0.0000000,0.0000202,0.0000000,0.0000000,0.0000000,0.0002025,0.0000000,0.0000000,0.0000202,0.0000202,0.0000000,0.0000000,0.0000040,0.0000000,0.0000000,0.0000000,0.0000202,0.0000000,0.0000000,0.0000040,0.0000000,0.0000000,0.0000000,0.0000202,0.0000000,0.0000000,0.0000040
287.2147970,1.0495499,,-0.9751924,-0.2213424,-0.0002033,0.0026891,0.0010964,-0.0014114,0.0017582,,,,0.9720393,-4.2246780,-11.5927038,0.0000000,0.0000000,0.0000000,0.0209910,0.0002033,0.0000000,0.0000000,0.0000203,0.0000000,0.0000000,0.0000000,0.0002033,0.0000000,0.0000000,0.0000203,0.0000000,0.0000000,0.0000000,0.0002033,0.0000000,0.0000000,0.0000203,0.0000203,0.0000000,0.0000000,0.0000040,0.0000000,0.0000000,0.0000000,0.0000203,0.0000000,0.0000000,0.0000040,0.0000000,0.0000000,0.0000000,0.0000203,0.0000000,0.0000000,0.0000040
287.2307670,,1.0200000,-0.9751924,-0.2213424,-0.0002033,0.0026891,,,,0.0000000,0.0000000,0.0000000,0.9720393,-4.2246780,-11.5927038,0.0000000,0.0000000,0.0000000,0.1020000,0.0001993,0.0000000,0.0000000,0.0000199,0.0000000,0.0000000,0.0000000,0.0001993,0.0000000,0.0000000,0.0000199,0.0000000,0.0000000,0.0000000,0.0001993,0.0000000,0.0000000,0.0000199,0.0000199,0.0000000,0.0000000,0.0000040,0.0000000,0.0000000,0.0000000,0.0000199,0.0000000,0.0000000,0.0000040,0.0000000,0.0000000,0.0000000,0.0000199,0.0000000,0.0000000,0.0000040
287.2435140,1.0999500,,-0.9751925,-0.2213424,-0.0001946,0.0026643,-0.0014354,0.0023156,0.0057619,,,,0.9720393,-4.2246780,-11.5927038,0.0000000,0.0000000,0.0000000,0.0219990,0.0002001,0.0000000,0.0000000,0.0000200,0.0000000,0.0000000,0.0000000,0.0002001,0.0000000,0.0000000,0.0000200,0.0000000,0.0000000,0.0000000,0.0002001,0.0000000,0.0000000,0.0000200,0.0000200,0.0000000,0.0000000,0.0000040,0.0000000,0.0000000,0.0000000,0.0000200,0.0000000,0.0000000,0.0000040,0.0000000,0.0000000,0.0000000,0.0000200,0.0000000,0.0000000,0.0000040
287.2568240,1.0000000,,-0.9751926,-0.2213424,-0.0001595,0.0026315,-0.0031210,-0.0024357,0.0080079,,,,0.9720393,-4.2246780,-11.5927038,0.0000000,0.0000000,0.0000000,0.0200000,0.0002009,0.0000000,0.0000000,0.0000201,0.0000000,0.0000000,0.0000000,0.0002009,0.0000000,0.0000000,0.0000201,0.0000000,0.0000000,0.0000000,0.0002009,0.0000000,0.0000000,0.0000201,0.0000201,0.0000000,0.0000000,0.0000040,0.0000000,0.0000000,0.0000000,0.0000201,0.0000000,0.0000000,0.0000040,0.0000000,0.0000000,0.0000000,0.0000201,0.0000000,0.0000000,0.0000040
287.2768270,1.0004500,,-0.9751927,-0.2213424,-0.0001642,0.0026159,0.0016057,-0.0014009,-0.0013671,,,,0.9720393,-4.2246780,-11.5927038,0.0000000,0.0000000,0.0000000,0.0200090,0.0002017,0.0000000,0.0000000,0.0000201,0.0000000,0.0000000,0.0000000,0.0002017,0.0000000,0.0000000,0.0000201,0.0000000,0.0000000,0.0000000,0.0002017,0.0000000,0.0000000,0.0000201,0.0000201,0.0000000,0.0000000,0.0000040,0.0000000,0.0000000,0.0000000,0.0000201,0.0000000,0.0000000,0.0000040,0.0000000,0.0000000,0.0000000,0.0000201,0.0000000,0.0000000,0.0000040
287.2967860,0.9998500,,-0.9751927,-0.2213424,-0.0001734,0.0025899,-0.0009138,-0.0016541,-0.0033691,,,,0.9720393,-4.2246780,-11.5927038,0.0000000,0.0000000,0.0000000,0.0199970,0.0002025,0.0000000,0.0000000,0.0000202,0.0000000,0.0000000,0.0000000,0.0002025,0.0000000,0.0000000,0.0000202,0.0000000,0.0000000,0.0000000,0.0002025,0.0000000,0.0000000,0.0000202,0.0000202,0.0000000,0.0000000,0.0000040,0.0000000,0.0000000,0.0000000,0.0000202,0.0000000,0.0000000,0.0000040,0.0000000,0.0000000,0.0000000,0.0000202,0.0000000,0.0000000,0.0000040
287.3166340,1.0001501,,-0.9751928,-0.2213425,-0.0001680,0.0025576,0.0027322,0.0016067,0.0005127,,,,0.9720393,-4.2246780,-11.5927038,0.0000000,0.0000000,0.0000000,0.0200030,0.0002034,0.0000000,0.0000000,0.0000203,0.0000000,0.0000000,0.0000000,0.0002034,0.0000000,0.0000000,0.0000203,0.0000000,0.0000000,0.0000000,0.0002034,0.0000000,0.0000000,0.0000203,0.0000203,0.0000000,0.0000000,0.0000040,0.0000000,0.0000000,0.0000000,0.0000203,0.0000000,0.0000000,0.0000040,0.0000000,0.0000000,0.0000000,0.0000203,0.0000000,0.0000000,0.0000040
287.3327100,,1.0200200,-0.9751928,-0.2213425,-0.0001680,0.0025576,,,,0.0000000,0.0000000,0.0000000,0.9720393,-4.2246780,-11.5927038,0.0000000,0.0000000,0.0000000,0.1020020,0.0001993,0.0000000,0.0000000,0.0000199,0.0000000,0.0000000,0.0000000,0.0001993,0.0000000,0.0000000,0.0000199,0.0000000,0.0000000,0.0000000,0.0001993,0.0000000,0.0000000,0.0000199,0.0000199,0.0000000,0.0000000,0.0000040,0.0000000,0.0000000,0.0000000,0.0000199,0.0000000,0.0000000,0.0000040,0.0000000,0.0000000,0.0000000,0.0000199,0.0000000,0.0000000,0.0000040
287.3464220,1.0998499,,-0.9751928,-0.2213425,-0.0001968,0.0025357,0.0066990,0.0014976,0.0024536,,,,0.9720393,-4.2246780,-11.5927038,0.0000000,0.0000000,0.0000000,0.0219970,0.0002002,0.0000000,0.0000000,0.0000200,0.0000000,0.0000000,0.0000000,0.0002002,0.0000000,0.0000000,0.0000200,0.0000000,0.0000000,0.0000000,0.0002002,0.0000000,0.0000000,0.0000200,0.0000200,0.0000000,0.0000000,0.0000040,0.0000000,0.0000000,0.0000000,0.0000200,0.0000000,0.0000000,0.0000040,0.0000000,0.0000000,0.0000000,0.0000200,0.0000000,0.0000000,0.0000040
287.3596340,1.0496501,,-0.9751928,-0.2213426,-0.0002277,0.0025417,0.0108416,0.0019619,0.0053772,,,,0.9720393,-4.2246780,-11.5927038,0.0000000,0.0000000,0.0000000,0.0209930,0.0002010,0.0000000,0.0000000,0.0000201,0.0000000,0.0000000,0.0000000,0.0002010,0.0000000,0.0000000,0.0000201,0.0000000,0.0000000,0.0000000,0.0002010,0.0000000,0.0000000,0.0000201,0.0000201,0.0000000,0.0000000,0.0000040,0.0000000,0.0000000,0.0000000,0.0000201,0.0000000,0.0000000,0.0000040,0.0000000,0.0000000,0.0000000,0.0000201,0.0000000,0.0000000,0.0000040
287.3810710,1.0003999,,-0.9751927,-0.2213427,-0.0002504,0.0025649,0.0087396,-0.0002169,0.0112335,,,,0.9720393,-4.2246780,-11.5927038,0.0000000,0.0000000,0.0000000,0.0200080,0.0002018,0.0000000,0.0000000,0.0000202,0.0000000,0.0000000,0.0000000,0.0002018,0.0000000,0.0000000,0.0000202,0.0000000,0.0000000,0.0000000,0.0002018,0.0000000,0.0000000,0.0000202,0.0000202,0.0000000,0.0000000,0.0000040,0.0000000,0.0000000,0.0000000,0.0000202,0.0000000,0.0000000,0.0000040,0.0000000,0.0000000,0.0000000,0.0000202,0.0000000,0.0000000,0.0000040
287.3996270,1.0000501,,-0.9751927,-0.2213427,-0.0002610,0.0025663,0.0089093,0.0011199,0.0017105,,,,0.9720393,-4.2246780,-11.5927038,0.0000000,0.0000000,0.0000000,0.0200010,0.0002026,0.0000000,0.0000000,0.0000202,0.0000000,0.0000000,0.0000000,0.0002026,0.0000000,0.0000000,0.0000202,0.0000000,0.0000000,0.0000000,0.0002026,0.0000000,0.0000000,0.0000202,0.0000202,0.0000000,0.0000000,0.0000040,0.0000000,0.0000000,0.0000000,0.0000202,0.0000000,0.0000000,0.0000040,0.0000000,0.0000000,0.0000000,0.0000202,0.0000000,0.0000000,0.0000040
287.4197710,0.9999500,,-0.9751927,-0.2213427,-0.0002668,0.0025506,0.0055838,0.0012695,0.0098885,,,,0.9720393,-4.2246780,-11.5927038,0.0000000,0.0000000,0.0000000,0.0199990,0.0002034,0.0000000,0.0000000,0.0000203,0.0000000,0.0000000,0.0000000,0.0002034,0.0000000,0.0000000,0.0000203,0.0000000,0.0000000,0.0000000,0.0002034,0.0000000,0.0000000,0.0000203,0.0000203,0.0000000,0.0000000,0.0000040,0.0000000,0.0000000,0.0000000,0.0000203,0.0000000,0.0000000,0.0000040,0.0000000,0.0000000,0.0000000,0.0000203,0.0000000,0.0000000,0.0000040
287.4355020,,1.0000499,-0.9751927,-0.2213427,-0.0002668,0.0025506,,,,0.0000000,0.0000000,0.0000000,0.9720393,-4.2246780,-11.5927038,0.0000000,0.0000000,0.0000000,0.1000050,0.0001994,0.0000000,0.0000000,0.0000199,0.0000000,0.0000000,0.0000000,0.0001994,0.0000000,0.0000000,0.0000199,0.0000000,0.0000000,0.0000000,0.0001994,0.0000000,0.0000000,0.0000199,0.0000199,0.0000000,0.0000000,0.0000040,0.0000000,0.0000000,0.0000000,0.0000199,0.0000000,0.0000000,0.0000040,0.0000000,0.0000000,0.0000000,0.0000199,0.0000000,0.0000000,0.0000040
287.4494510,0.9998000,,-0.9751927,-0.2213427,-0.0002505,0.0025593,0.0005336,-0.0027680,0.0044559,,,,0.9720393,-4.2246780,-11.5927038,0.0000000,0.0000000,0.0000000,0.0199960,0.0002002,0.0000000,0.0000000,0.0000200,0.0000000,0.0000000,0.0000000,0.0002002,0.0000000,0.0000000,0.0000200,0.0000000,0.0000000,0.0000000,0.0002002,0.0000000,0.0000000,0.0000200,0.0000200,0.0000000,0.0000000,0.0000040,0.0000000,0.0000000,0.0000000,0.0000200,0.0000000,0.0000000,0.0000040,0.0000000,0.0000000,0.0000000,0.0000200,0.0000000,0.0000000,0.0000040
287.4626170,1.1498500,,-0.9751927,-0.2213427,-0.0002483,0.0025663,0.0004346,0.0044906,0.0073549,,,,0.9720393,-4.2246780,-11.5927038,0.0000000,0.0000000,0.0000000,0.0229970,0.0002011,0.0000000,0.0000000,0.0000201,0.0000000,0.0000000,0.0000000,0.0002011,0.0000000,0.0000000,0.0000201,0.0000000,0.0000000,0.0000000,0.0002011,0.0000000,0.0000000,0.0000201,0.0000201,0.0000000,0.0000000,0.0000040,0.0000000,0.0000000,0.0000000,0.0000201,0.0000000,0.0000000,0.0000040,0.0000000,0.0000000,0.0000000,0.0000201,0.0000000,0.0000000,0.0000040
287.4839260,1.0501001,,-0.9751927,-0.2213425,-0.0002072,0.0025710,-0.0046579,0.0008186,0.0019685,,,,0.9720393,-4.2246780,-11.5927038,0.0000000,0.0000000,0.0000000,0.0210020,0.0002019,0.0000000,0.0000000,0.0000202,0.0000000,0.0000000,0.0000000,0.0002019,0.0000000,0.0000000,0.0000202,0.0000000,0.0000000,0.0000000,0.0002019,0.0000000,0.0000000,0.0000202,0.0000202,0.0000000,0.0000000,0.0000040,0.0000000,0.0000000,0.0000000,0.0000202,0.0000000,0.0000000,0.0000040,0.0000000,0.0000000,0.0000000,0.0000202,0.0000000,0.0000000,0.0000040
287.5038200,1.0002000,,-0.9751927,-0.2213425,-0.0002060,0.0025920,0.0044689,-0.0004986,-0.0004806,,,,0.9720393,-4.2246780,-11.5927038,0.0000000,0.0000000,0.0000000,0.0200040,0.0002027,0.0000000,0.0000000,0.0000202,0.0000000,0.0000000,0.0000000,0.0002027,0.0000000,0.0000000,0.0000202,0.0000000,0.0000000,0.0000000,0.0002027,0.0000000,0.0000000,0.0000202,0.0000202,0.0000000,0.0000000,0.0000040,0.0000000,0.0000000,0.0000000,0.0000202,0.0000000,0.0000000,0.0000040,0.0000000,0.0000000,0.0000000,0.0000202,0.0000000,0.0000000,0.0000040
287.5241970,,0.9999300,-0.9751927,-0.2213425,-0.0002064,0.0025945,,,,0.0000000,0.0000000,0.0000000,0.9720393,-4.2246780,-11.5927038,0.0000000,0.0000000,0.0000000,0.0999930,0.0001987,0.0000000,0.0000000,0.0000198,0.0000000,0.0000000,0.0000000,0.0001987,0.0000000,0.0000000,0.0000198,0.0000000,0.0000000,0.0000000,0.0001987,0.0000000,0.0000000,0.0000198,0.0000198,0.0000000,0.0000000,0.0000040,0.0000000,0.0000000,0.0000000,0.0000198,0.0000000,0.0000000,0.0000040,0.0000000,0.0000000,0.0000000,0.0000198,0.0000000,0.0000000,0.0000040
287.5374830,1.0000000,,-0.9751927,-0.2213425,-0.0002064,0.0025945,0.0009756,0.0015055,-0.0073204,,,,0.9720393,-4.2246780,-11.5927038,0.0000000,0.0000000,0.0000000,0.0200000,0.0001995,0.0000000,0.0000000,0.0000199,0.0000000,0.0000000,0.0000000,0.0001995,0.0000000,0.0000000,0.0000199,0.0000000,0.0000000,0.0000000,0.0001995,0.0000000,0.0000000,0.0000199,0.0000199,0.0000000,0.0000000,0.0000040,0.0000000,0.0000000,0.0000000,0.0000199,0.0000000,0.0000000,0.0000040,0.0000000,0.0000000,0.0000000,0.0000199,0.0000000,0.0000000,0.0000040
287.5508520,1.3496001,,-0.9751925,-0.2213426,-0.0002281,0.0026160,0.0038142,0.0071767,-0.0019512,,,,0.9720393,-4.2246780,-11.5927038,0.0000000,0.0000000,0.0000000,0.0269920,0.0002006,0.0000000,0.0000000,0.0000200,0.0000000,0.0000000,0.0000000,0.0002006,0.0000000,0.0000000,0.0000200,0.0000000,0.0000000,0.0000000,0.0002006,0.0000000,0.0000000,0.0000200,0.0000200,0.0000000,0.0000000,0.0000040,0.0000000,0.0000000,0.0000000,0.0000200,0.0000000,0.0000000,0.0000040,0.0000000,0.0000000,0.0000000,0.0000200,0.0000000,0.0000000,0.0000040
287.5710110,1.0001501,,-0.9751925,-0.2213426,-0.0002295,0.0026396,-0.0050051,0.0002772,0.0026865,,,,0.9720393,-4.2246780,-11.5927038,0.0000000,0.0000000,0.0000000,0.0200030,0.0002014,0.0000000,0.0000000,0.0000201,0.0000000,0.0000000,0.0000000,0.0002014,0.0000000,0.0000000,0.0000201,0.0000000,0.0000000,0.0000000,0.0002014,0.0000000,0.0000000,0.0000201,0.0000201,0.0000000,0.0000000,0.0000040,0.0000000,0.0000000,0.0000000,0.0000201,0.0000000,0.0000000,0.0000040,0.0000000,0.0000000,0.0000000,0.0000201,0.0000000,0.0000000,0.0000040
287.5908480,1.0002999,,-0.9751924,-0.2213426,-0.0002375,0.0026600,-0.0006486,0.0027021,0.0037847,,,,0.9720393,-4.2246780,-11.5927038,0.0000000,0.0000000,0.0000000,0.0200060,0.0002022,0.0000000,0.0000000,0.0000202,0.0000000,0.0000000,0.0000000,0.0002022,0.0000000,0.0000000,0.0000202,0.0000000,0.0000000,0.0000000,0.0002022,0.0000000,0.0000000,0.0000202,0.0000202,0.0000000,0.0000000,0.0000040,0.0000000,0.0000000,0.0000000,0.0000202,0.0000000,0.0000000,0.0000040,0.0000000,0.0000000,0.0000000,0.0000202,0.0000000,0.0000000,0.0000040
287.6115070,1.0497501,,-0.9751923,-0.2213425,-0.0002346,0.0027081,0.0000648,-0.0082162,0.0035937,,,,0.9720393,-4.2246780,-11.5927038,0.0000000,0.0000000,0.0000000,0.0209950,0.0002030,0.0000000,0.0000000,0.0000203,0.0000000,0.0000000,0.0000000,0.0002030,0.0000000,0.0000000,0.0000203,0.0000000,0.0000000,0.0000000,0.0002030,0.0000000,0.0000000,0.0000203,0.0000203,0.0000000,0.0000000,0.0000040,0.0000000,0.0000000,0.0000000,0.0000203,0.0000000,0.0000000,0.0000040,0.0000000,0.0000000,0.0000000,0.0000203,0.0000000,0.0000000,0.0000040
287.6291770,,1.0200900,-0.9751923,-0.2213425,-0.0002346,0.0027081,,,,0.0000000,0.0000000,0.0000000,0.9720393,-4.2246780,-11.5927038,0.0000000,0.0000000,0.0000000,0.1020090,0.0001990,0.0000000,0.0000000,0.0000199,0.0000000,0.0000000,0.0000000,0.0001990,0.0000000,0.0000000,0.0000199,0.0000000,0.0000000,0.0000000,0.0001990,0.0000000,0.0000000,0.0000199,0.0000199,0.0000000,0.0000000,0.0000040,0.0000000,0.0000000,0.0000000,0.0000199,0.0000000,0.0000000,0.0000040,0.0000000,0.0000000,0.0000000,0.0000199,0.0000000,0.0000000,0.0000040
287.6424770,1.1000000,,-0.9751922,-0.2213425,-0.0002308,0.0027329,0.0023746,-0.0019566,0.0037423,,,,0.9720393,-4.2246780,-11.5927038,0.0000000,0.0000000,0.0000000,0.0220000,0.0001999,0.0000000,0.0000000,0.0000200,0.0000000,0.0000000,0.0000000,0.0001999,0.0000000,0.0000000,0.0000200,0.0000000,0.0000000,0.0000000,0.0001999,0.0000000,0.0000000,0.0000200,0.0000200,0.0000000,0.0000000,0.0000040,0.0000000,0.0000000,0.0000000,0.0000200,0.0000000,0.0000000,0.0000040,0.0000000,0.0000000,0.0000000,0.0000200,0.0000000,0.0000000,0.0000040
287.6557980,1.0998001,,-0.9751922,-0.2213425,-0.0002318,0.0027473,0.0042620,-0.0000399,0.0008870,,,,0.9720393,-4.2246780,-11.5927038,0.0000000,0.0000000,0.0000000,0.0219960,0.0002007,0.0000000,0.0000000,0.0000201,0.0000000,0.0000000,0.0000000,0.0002007,0.0000000,0.0000000,0.0000201,0.0000000,0.0000000,0.0000000,0.0002007,0.0000000,0.0000000,0.0000201,0.0000201,0.0000000,0.0000000,0.0000040,0.0000000,0.0000000,0.0000000,0.0000201,0.0000000,0.0000000,0.0000040,0.0000000,0.0000000,0.0000000,0.0000201,0.0000000,0.0000000,0.0000040
287.6759580,1.0001501,,-0.9751922,-0.2213425,-0.0002420,0.0027566,0.0020089,-0.0007905,-0.0002966,,,,0.9720393,-4.2246780,-11.5927038,0.0000000,0.0000000,0.0000000,0.0200030,0.0002016,0.0000000,0.0000000,0.0000201,0.0000000,0.0000000,0.0000000,0.0002016,0.0000000,0.0000000,0.0000201,0.0000000,0.0000000,0.0000000,0.0002016,0.0000000,0.0000000,0.0000201,0.0000201,0.0000000,0.0000000,0.0000040,0.0000000,0.0000000,0.0000000,0.0000201,0.0000000,0.0000000,0.0000040,0.0000000,0.0000000,0.0000000,0.0000201,0.0000000,0.0000000,0.0000040
287.6958070,1.0002501,,-0.9751922,-0.2213425,-0.0002415,0.0027634,0.0045521,-0.0026230,-0.0008883,,,,0.9720393,-4.2246780,-11.5927038,0.0000000,0.0000000,0.0000000,0.0200050,0.0002024,0.0000000,0.0000000,0.0000202,0.0000000,0.0000000,0.0000000,0.0002024,0.0000000,0.0000000,0.0000202,0.0000000,0.0000000,0.0000000,0.0002024,0.0000000,0.0000000,0.0000202,0.0000202,0.0000000,0.0000000,0.0000040,0.0000000,0.0000000,0.0000000,0.0000202,0.0000000,0.0000000,0.0000040,0.0000000,0.0000000,0.0000000,0.0000202,0.0000000,0.0000000,0.0000040
287.7166040,1.0498501,,-0.9751922,-0.2213425,-0.0002304,0.0027448,0.0031687,0.0037468,0.0000441,,,,0.9720393,-4.2246780,-11.5927038,0.0000000,0.0000000,0.0000000,0.0209970,0.0002032,0.0000000,0.0000000,0.0000203,0.0000000,0.0000000,0.0000000,0.0002032,0.0000000,0.0000000,0.0000203,0.0000000,0.0000000,0.0000000,0.0002032,0.0000000,0.0000000,0.0000203,0.0000203,0.0000000,0.0000000,0.0000040,0.0000000,0.0000000,0.0000000,0.0000203,0.0000000,0.0000000,0.0000040,0.0000000,0.0000000,0.0000000,0.0000203,0.0000000,0.0000000,0.0000040
287.7327630,,0.9999100,-0.9751922,-0.2213425,-0.0002304,0.0027448,,,,0.0000000,0.0000000,0.0000000,0.9720393,-4.2246780,-11.5927038,0.0000000,0.0000000,0.0000000,0.0999910,0.0001992,0.0000000,0.0000000,0.0000199,0.0000000,0.0000000,0.0000000,0.0001992,0.0000000,0.0000000,0.0000199,0.0000000,0.0000000,0.0000000,0.0001992,0.0000000,0.0000000,0.0000199,0.0000199,0.0000000,0.0000000,0.0000040,0.0000000,0.0000000,0.0000000,0.0000199,0.0000000,0.0000000,0.0000040,0.0000000,0.0000000,0.0000000,0.0000199,0.0000000,0.0000000,0.0000040
287.7465490,1.1001000,,-0.9751923,-0.2213425,-0.0002214,0.0027103,-0.0031154,0.0068783,0.0019752,,,,0.9720393,-4.2246780,-11.5927038,0.0000000,0.0000000,0.0000000,0.0220020,0.0002000,0.0000000,0.0000000,0.0000200,0.0000000,0.0000000,0.0000000,0.0002000,0.0000000,0.0000000,0.0000200,0.0000000,0.0000000,0.0000000,0.0002000,0.0000000,0.0000000,0.0000200,0.0000200,0.0000000,0.0000000,0.0000040,0.0000000,0.0000000,0.0000000,0.0000200,0.0000000,0.0000000,0.0000040,0.0000000,0.0000000,0.0000000,0.0000200,0.0000000,0.0000000,0.0000040
287.7597820,1.0500000,,-0.9751923,-0.2213425,-0.0002179,0.0027010,0.0013033,-0.0022829,0.0068470,,,,0.9720393,-4.2246780,-11.5927038,0.0000000,0.0000000,0.0000000,0.0210000,0.0002009,0.0000000,0.0000000,0.0000201,0.0000000,0.0000000,0.0000000,0.0002009,0.0000000,0.0000000,0.0000201,0.0000000,0.0000000,0.0000000,0.0002009,0.0000000,0.0000000,0.0000201,0.0000201,0.0000000,0.0000000,0.0000040,0.0000000,0.0000000,0.0000000,0.0000201,0.0000000,0.0000000,0.0000040,0.0000000,0.0000000,0.0000000,0.0000201,0.0000000,0.0000000,0.0000040
287.7797690,1.0000501,,-0.9751924,-0.2213425,-0.0002140,0.0026788,0.0027955,-0.0039643,0.0041559,,,,0.9720393,-4.2246780,-11.5927038,0.0000000,0.0000000,0.0000000,0.0200010,0.0002017,0.0000000,0.0000000,0.0000201,0.0000000,0.0000000,0.0000000,0.0002017,0.0000000,0.0000000,0.0000201,0.0000000,0.0000000,0.0000000,0.0002017,0.0000000,0.0000000,0.0000201,0.0000201,0.0000000,0.0000000,0.0000040,0.0000000,0.0000000,0.0000000,0.0000201,0.0000000,0.0000000,0.0000040,0.0000000,0.0000000,0.0000000,0.0000201,0.0000000,0.0000000,0.0000040
287.7996850,1.0000000,,-0.9751924,-0.2213426,-0.0002436,0.0026571,0.0056779,-0.0045990,0.0020780,,,,0.9720393,-4.2246780,-11.5927038,0.0000000,0.0000000,0.0000000,0.0200000,0.0002025,0.0000000,0.0000000,0.0000202,0.0000000,0.0000000,0.0000000,0.0002025,0.0000000,0.0000000,0.0000202,0.0000000,0.0000000,0.0000000,0.0002025,0.0000000,0.0000000,0.0000202,0.0000202,0.0000000,0.0000000,0.0000040,0.0000000,0.0000000,0.0000000,0.0000202,0.0000000,0.0000000,0.0000040,0.0000000,0.0000000,0.0000000,0.0000202,0.0000000,0.0000000,0.0000040
287.8193780,0.9999000,,-0.9751924,-0.2213427,-0.0002799,0.0026717,0.0056008,0.0053833,0.0025038,,,,0.9720393,-4.2246780,-11.5927038,0.0000000,0.0000000,0.0000000,0.0199980,0.0002033,0.0000000,0.0000000,0.0000203,0.0000000,0.0000000,0.0000000,0.0002033,0.0000000,0.0000000,0.0000203,0.0000000,0.0000000,0.0000000,0.0002033,0.0000000,0.0000000,0.0000203,0.0000203,0.0000000,0.0000000,0.0000040,0.0000000,0.0000000,0.0000000,0.0000203,0.0000000,0.0000000,0.0000040,0.0000000,0.0000000,0.0000000,0.0000203,0.0000000,0.0000000,0.0000040
287.8348890,,1.0201000,-0.9751924,-0.2213427,-0.0002799,0.0026717,,,,0.0000000,0.0000000,0.0000000,0.9720393,-4.2246780,-11.5927038,0.0000000,0.0000000,0.0000000,0.1020100,0.0001992,0.0000000,0.0000000,0.0000199,0.0000000,0.0000000,0.0000000,0.0001992,0.0000000,0.0000000,0.0000199,0.0000000,0.0000000,0.0000000,0.0001992,0.0000000,0.0000000,0.0000199,0.0000199,0.0000000,0.0000000,0.0000040,0.0000000,0.0000000,0.0000000,0.0000199,0.0000000,0.0000000,0.0000040,0.0000000,0.0000000,0.0000000,0.0000199,0.0000000,0.0000000,0.0000040
287.8485210,1.1003000,,-0.9751923,-0.2213428,-0.0003114,0.0026867,0.0033344,0.0052551,0.0019843,,,,0.9720393,-4.2246780,-11.5927038,0.0000000,0.0000000,0.0000000,0.0220060,0.0002001,0.0000000,0.0000000,0.0000200,0.0000000,0.0000000,0.0000000,0.0002001,0.0000000,0.0000000,0.0000200,0.0000000,0.0000000,0.0000000,0.0002001,0.0000000,0.0000000,0.0000200,0.0000200,0.0000000,0.0000000,0.0000040,0.0000000,0.0000000,0.0000000,0.0000200,0.0000000,0.0000000,0.0000040,0.0000000,0.0000000,0.0000000,0.0000200,0.0000000,0.0000000,0.0000040
287.8618120,0.9994500,,-0.9751923,-0.2213428,-0.0003287,0.0026763,-0.0004766,0.0053970,0.0090488,,,,0.9720393,-4.2246780,-11.5927038,0.0000000,0.0000000,0.0000000,0.0199890,0.0002009,0.0000000,0.0000000,0.0000201,0.0000000,0.0000000,0.0000000,0.0002009,0.0000000,0.0000000,0.0000201,0.0000000,0.0000000,0.0000000,0.0002009,0.0000000,0.0000000,0.0000201,0.0000201,0.0000000,0.0000000,0.0000040,0.0000000,0.0000000,0.0000000,0.0000201,0.0000000,0.0000000,0.0000040,0.0000000,0.0000000,0.0000000,0.0000201,0.0000000,0.0000000,0.0000040
287.8819620,1.0001000,,-0.9751924,-0.2213429,-0.0003568,0.0026476,0.0024701,0.0081001,0.0101396,,,,0.9720393,-4.2246780,-11.5927038,0.0000000,0.0000000,0.0000000,0.0200020,0.0002017,0.0000000,0.0000000,0.0000201,0.0000000,0.0000000,0.0000000,0.0002017,0.0000000,0.0000000,0.0000201,0.0000000,0.0000000,0.0000000,0.0002017,0.0000000,0.0000000,0.0000201,0.0000201,0.0000000,0.0000000,0.0000040,0.0000000,0.0000000,0.0000000,0.0000201,0.0000000,0.0000000,0.0000040,0.0000000,0.0000000,0.0000000,0.0000201,0.0000000,0.0000000,0.0000040
287.9015370,1.0000000,,-0.9751924,-0.2213430,-0.0003602,0.0026175,0.0042182,0.0089405,0.0123940,,,,0.9720393,-4.2246780,-11.5927038,0.0000000,0.0000000,0.0000000,0.0200000,0.0002025,0.0000000,0.0000000,0.0000202,0.0000000,0.0000000,0.0000000,0.0002025,0.0000000,0.0000000,0.0000202,0.0000000,0.0000000,0.0000000,0.0002025,0.0000000,0.0000000,0.0000202,0.0000202,0.0000000,0.0000000,0.0000040,0.0000000,0.0000000,0.0000000,0.0000202,0.0000000,0.0000000,0.0000040,0.0000000,0.0000000,0.0000000,0.0000202,0.0000000,0.0000000,0.0000040
287.9219750,1.0000501,,-0.9751925,-0.2213430,-0.0003729,0.0025936,0.0036121,0.0037226,0.0049763,,,,0.9720393,-4.2246780,-11.5927038,0.0000000,0.0000000,0.0000000,0.0200010,0.0002033,0.0000000,0.0000000,0.0000203,0.0000000,0.0000000,0.0000000,0.0002033,0.0000000,0.0000000,0.0000203,0.0000000,0.0000000,0.0000000,0.0002033,0.0000000,0.0000000,0.0000203,0.0000203,0.0000000,0.0000000,0.0000040,0.0000000,0.0000000,0.0000000,0.0000203,0.0000000,0.0000000,0.0000040,0.0000000,0.0000000,0.0000000,0.0000203,0.0000000,0.0000000,0.0000040
287.9387830,,0.9999100,-0.9751925,-0.2213430,-0.0003729,0.0025936,,,,0.0000000,0.0000000,0.0000000,0.9720393,-4.2246780,-11.5927038,0.0000000,0.0000000,0.0000000,0.0999910,0.0001993,0.0000000,0.0000000,0.0000199,0.0000000,0.0000000,0.0000000,0.0001993,0.0000000,0.0000000,0.0000199,0.0000000,0.0000000,0.0000000,0.0001993,0.0000000,0.0000000,0.0000199,0.0000199,0.0000000,0.0000000,0.0000040,0.0000000,0.0000000,0.0000000,0.0000199,0.0000000,0.0000000,0.0000040,0.0000000,0.0000000,0.0000000,0.0000199,0.0000000,0.0000000,0.0000040
287.9526510,1.0000501,,-0.9751925,-0.2213430,-0.0003795,0.0025776,-0.0020621,0.0042798,0.0115214,,,,0.9720393,-4.2246780,-11.5927038,0.0000000,0.0000000,0.0000000,0.0200010,0.0002001,0.0000000,0.0000000,0.0000200,0.0000000,0.0000000,0.0000000,0.0002001,0.0000000,0.0000000,0.0000200,0.0000000,0.0000000,0.0000000,0.0002001,0.0000000,0.0000000,0.0000200,0.0000200,0.0000000,0.0000000,0.0000040,0.0000000,0.0000000,0.0000000,0.0000200,0.0000000,0.0000000,0.0000040,0.0000000,0.0000000,0.0000000,0.0000200,0.0000000,0.0000000,0.0000040
287.9655100,1.1998000,,-0.9751926,-0.2213430,-0.0003617,0.0025524,-0.0014354,0.0064887,0.0035634,,,,0.9720393,-4.2246780,-11.5927038,0.0000000,0.0000000,0.0000000,0.0239960,0.0002010,0.0000000,0.0000000,0.0000201,0.0000000,0.0000000,0.0000000,0.0002010,0.0000000,0.0000000,0.0000201,0.0000000,0.0000000,0.0000000,0.0002010,0.0000000,0.0000000,0.0000201,0.0000201,0.0000000,0.0000000,0.0000040,0.0000000,0.0000000,0.0000000,0.0000201,0.0000000,0.0000000,0.0000040,0.0000000,0.0000000,0.0000000,0.0000201,0.0000000,0.0000000,0.0000040
287.9867720,1.0504500,,-0.9751927,-0.2213430,-0.0003568,0.0025313,0.0037608,-0.0002423,0.0010493,,,,0.9720393,-4.2246780,-11.5927038,0.0000000,0.0000000,0.0000000,0.0210090,0.0002019,0.0000000,0.0000000,0.0000202,0.0000000,0.0000000,0.0000000,0.0002019,0.0000000,0.0000000,0.0000202,0.0000000,0.0000000,0.0000000,0.0002019,0.0000000,0.0000000,0.0000202,0.0000202,0.0000000,0.0000000,0.0000040,0.0000000,0.0000000,0.0000000,0.0000202,0.0000000,0.0000000,0.0000040,0.0000000,0.0000000,0.0000000,0.0000202,0.0000000,0.0000000,0.0000040
288.0066160,0.9996500,,-0.9751927,-0.2213431,-0.0003722,0.0025234,0.0041234,0.0027399,0.0054075,,,,0.9720393,-4.2246780,-11.5927038,0.0000000,0.0000000,0.0000000,0.0199930,0.0002027,0.0000000,0.0000000,0.0000202,0.0000000,0.0000000,0.0000000,0.0002027,0.0000000,0.0000000,0.0000202,0.0000000,0.0000000,0.0000000,0.0002027,0.0000000,0.0000000,0.0000202,0.0000202,0.0000000,0.0000000,0.0000040,0.0000000,0.0000000,0.0000000,0.0000202,0.0000000,0.0000000,0.0000040,0.0000000,0.0000000,0.0000000,0.0000202,0.0000000,0.0000000,0.0000040
288.0283620,,1.0000000,-0.9751927,-0.2213431,-0.0003677,0.0025128,,,,0.0000000,0.0000000,0.0000000,0.9720393,-4.2246780,-11.5927038,0.0000000,0.0000000,0.0000000,0.1000000,0.0001987,0.0000000,0.0000000,0.0000198,0.0000000,0.0000000,0.0000000,0.0001987,0.0000000,0.0000000,0.0000198,0.0000000,0.0000000,0.0000000,0.0001987,0.0000000,0.0000000,0.0000198,0.0000198,0.0000000,0.0000000,0.0000040,0.0000000,0.0000000,0.0000000,0.0000198,0.0000000,0.0000000,0.0000040,0.0000000,0.0000000,0.0000000,0.0000198,0.0000000,0.0000000,0.0000040
288.0416540,0.9999500,,-0.9751927,-0.2213431,-0.0003677,0.0025128,-0.0032407,0.0054440,0.0022154,,,,0.9720393,-4.2246780,-11.5927038,0.0000000,0.0000000,0.0000000,0.0199990,0.0001995,0.0000000,0.0000000,0.0000199,0.0000000,0.0000000,0.0000000,0.0001995,0.0000000,0.0000000,0.0000199,0.0000000,0.0000000,0.0000000,0.0001995,0.0000000,0.0000000,0.0000199,0.0000199,0.0000000,0.0000000,0.0000040,0.0000000,0.0000000,0.0000000,0.0000199,0.0000000,0.0000000,0.0000040,0.0000000,0.0000000,0.0000000,0.0000199,0.0000000,0.0000000,0.0000040
288.0547750,1.3999001,,-0.9751927,-0.2213430,-0.0003266,0.0025252,0.0016908,-0.0002306,-0.0018220,,,,0.9720393,-4.2246780,-11.5927038,0.0000000,0.0000000,0.0000000,0.0279980,0.0002006,0.0000000,0.0000000,0.0000200,0.0000000,0.0000000,0.0000000,0.0002006,0.0000000,0.0000000,0.0000200,0.0000000,0.0000000,0.0000000,0.0002006,0.0000000,0.0000000,0.0000200,0.0000200,0.0000000,0.0000000,0.0000040,0.0000000,0.0000000,0.0000000,0.0000200,0.0000000,0.0000000,0.0000040,0.0000000,0.0000000,0.0000000,0.0000200,0.0000000,0.0000000,0.0000040
288.0762200,1.0005500,,-0.9751926,-0.2213429,-0.0003058,0.0025613,-0.0014663,-0.0049676,0.0017746,,,,0.9720393,-4.2246780,-11.5927038,0.0000000,0.0000000,0.0000000,0.0200110,0.0002014,0.0000000,0.0000000,0.0000201,0.0000000,0.0000000,0.0000000,0.0002014,0.0000000,0.0000000,0.0000201,0.0000000,0.0000000,0.0000000,0.0002014,0.0000000,0.0000000,0.0000201,0.0000201,0.0000000,0.0000000,0.0000040,0.0000000,0.0000000,0.0000000,0.0000201,0.0000000,0.0000000,0.0000040,0.0000000,0.0000000,0.0000000,0.0000201,0.0000000,0.0000000,0.0000040
288.0946830,0.9999000,,-0.9751927,-0.2213429,-0.0002851,0.0025566,-0.0059440,-0.0027356,-0.0020424,,,,0.9720393,-4.2246780,-11.5927038,0.0000000,0.0000000,0.0000000,0.0199980,0.0002022,0.0000000,0.0000000,0.0000202,0.0000000,0.0000000,0.0000000,0.0002022,0.0000000,0.0000000,0.0000202,0.0000000,0.0000000,0.0000000,0.0002022,0.0000000,0.0000000,0.0000202,0.0000202,0.0000000,0.0000000,0.0000040,0.0000000,0.0000000,0.0000000,0.0000202,0.0000000,0.0000000,0.0000040,0.0000000,0.0000000,0.0000000,0.0000202,0.0000000,0.0000000,0.0000040
288.1148750,0.9997500,,-0.9751927,-0.2213428,-0.0002753,0.0025554,-0.0069698,-0.0069906,-0.0015095,,,,0.9720393,-4.2246780,-11.5927038,0.0000000,0.0000000,0.0000000,0.0199950,0.0002030,0.0000000,0.0000000,0.0000203,0.0000000,0.0000000,0.0000000,0.0002030,0.0000000,0.0000000,0.0000203,0.0000000,0.0000000,0.0000000,0.0002030,0.0000000,0.0000000,0.0000203,0.0000203,0.0000000,0.0000000,0.0000040,0.0000000,0.0000000,0.0000000,0.0000203,0.0000000,0.0000000,0.0000040,0.0000000,0.0000000,0.0000000,0.0000203,0.0000000,0.0000000,0.0000040
288.1305400,,1.0000199,-0.9751927,-0.2213428,-0.0002753,0.0025554,,,,0.0000000,0.0000000,0.0000000,0.9720393,-4.2246780,-11.5927038,0.0000000,0.0000000,0.0000000,0.1000020,0.0001989,0.0000000,0.0000000,0.0000199,0.0000000,0.0000000,0.0000000,0.0001989,0.0000000,0.0000000,0.0000199,0.0000000,0.0000000,0.0000000,0.0001989,0.0000000,0.0000000,0.0000199,0.0000199,0.0000000,0.0000000,0.0000040,0.0000000,0.0000000,0.0000000,0.0000199,0.0000000,0.0000000,0.0000040,0.0000000,0.0000000,0.0000000,0.0000199,0.0000000,0.0000000,0.0000040
288.1445670,1.0002999,,-0.9751927,-0.2213428,-0.0002604,0.0025525,-0.0064833,-0.0039912,-0.0061258,,,,0.9720393,-4.2246780,-11.5927038,0.0000000,0.0000000,0.0000000,0.0200060,0.0001997,0.0000000,0.0000000,0.0000200,0.0000000,0.0000000,0.0000000,0.0001997,0.0000000,0.0000000,0.0000200,0.0000000,0.0000000,0.0000000,0.0001997,0.0000000,0.0000000,0.0000200,0.0000200,0.0000000,0.0000000,0.0000040,0.0000000,0.0000000,0.0000000,0.0000200,0.0000000,0.0000000,0.0000040,0.0000000,0.0000000,0.0000000,0.0000200,0.0000000,0.0000000,0.0000040
288.1576300,1.1495500,,-0.9751927,-0.2213428,-0.0002454,0.0025602,-0.0052482,0.0016818,0.0008433,,,,0.9720393,-4.2246780,-11.5927038,0.0000000,0.0000000,0.0000000,0.0229910,0.0002007,0.0000000,0.0000000,0.0000200,0.0000000,0.0000000,0.0000000,0.0002007,0.0000000,0.0000000,0.0000200,0.0000000,0.0000000,0.0000000,0.0002007,0.0000000,0.0000000,0.0000200,0.0000200,0.0000000,0.0000000,0.0000040,0.0000000,0.0000000,0.0000000,0.0000200,0.0000000,0.0000000,0.0000040,0.0000000,0.0000000,0.0000000,0.0000200,0.0000000,0.0000000,0.0000040
288.1788630,1.0502001,,-0.9751927,-0.2213428,-0.0002432,0.0025558,-0.0051265,0.0035264,0.0018865,,,,0.9720393,-4.2246780,-11.5927038,0.0000000,0.0000000,0.0000000,0.0210040,0.0002015,0.0000000,0.0000000,0.0000201,0.0000000,0.0000000,0.0000000,0.0002015,0.0000000,0.0000000,0.0000201,0.0000000,0.0000000,0.0000000,0.0002015,0.0000000,0.0000000,0.0000201,0.0000201,0.0000000,0.0000000,0.0000040,0.0000000,0.0000000,0.0000000,0.0000201,0.0000000,0.0000000,0.0000040,0.0000000,0.0000000,0.0000000,0.0000201,0.0000000,0.0000000,0.0000040
288.1988020,1.0001000,,-0.9751927,-0.2213427,-0.0002334,0.0025560,-0.0006559,-0.0009147,0.0048495,,,,0.9720393,-4.2246780,-11.5927038,0.0000000,0.0000000,0.0000000,0.0200020,0.0002023,0.0000000,0.0000000,0.0000202,0.0000000,0.0000000,0.0000000,0.0002023,0.0000000,0.0000000,0.0000202,0.0000000,0.0000000,0.0000000,0.0002023,0.0000000,0.0000000,0.0000202,0.0000202,0.0000000,0.0000000,0.0000040,0.0000000,0.0000000,0.0000000,0.0000202,0.0000000,0.0000000,0.0000040,0.0000000,0.0000000,0.0000000,0.0000202,0.0000000,0.0000000,0.0000040
288.2187670,1.0002999,,-0.9751927,-0.2213428,-0.0002484,0.0025400,0.0000840,0.0043873,0.0077958,,,,0.9720393,-4.2246780,-11.5927038,0.0000000,0.0000000,0.0000000,0.0200060,0.0002031,0.0000000,0.0000000,0.0000203,0.0000000,0.0000000,0.0000000,0.0002031,0.0000000,0.0000000,0.0000203,0.0000000,0.0000000,0.0000000,0.0002031,0.0000000,0.0000000,0.0000203,0.0000203,0.0000000,0.0000000,0.0000040,0.0000000,0.0000000,0.0000000,0.0000203,0.0000000,0.0000000,0.0000040,0.0000000,0.0000000,0.0000000,0.0000203,0.0000000,0.0000000,0.0000040
288.2344900,,0.9999800,-0.9751927,-0.2213428,-0.0002484,0.0025400,,,,0.0000000,0.0000000,0.0000000,0.9720393,-4.2246780,-11.5927038,0.0000000,0.0000000,0.0000000,0.0999980,0.0001991,0.0000000,0.0000000,0.0000199,0.0000000,0.0000000,0.0000000,0.0001991,0.0000000,0.0000000,0.0000199,0.0000000,0.0000000,0.0000000,0.0001991,0.0000000,0.0000000,0.0000199,0.0000199,0.0000000,0.0000000,0.0000040,0.0000000,0.0000000,0.0000000,0.0000199,0.0000000,0.0000000,0.0000040,0.0000000,0.0000000,0.0000000,0.0000199,0.0000000,0.0000000,0.0000040
288.2481410,0.9997000,,-0.9751927,-0.2213428,-0.0002462,0.0025341,-0.0075874,0.0058329,0.0090249,,,,0.9720393,-4.2246780,-11.5927038,0.0000000,0.0000000,0.0000000,0.0199940,0.0001999,0.0000000,0.0000000,0.0000200,0.0000000,0.0000000,0.0000000,0.0001999,0.0000000,0.0000000,0.0000200,0.0000000,0.0000000,0.0000000,0.0001999,0.0000000,0.0000000,0.0000200,0.0000200,0.0000000,0.0000000,0.0000040,0.0000000,0.0000000,0.0000000,0.0000200,0.0000000,0.0000000,0.0000040,0.0000000,0.0000000,0.0000000,0.0000200,0.0000000,0.0000000,0.0000040
288.2616720,1.1497501,,-0.9751927,-0.2213428,-0.0002633,0.0025584,-0.0046329,0.0034200,-0.0011028,,,,0.9720393,-4.2246780,-11.5927038,0.0000000,0.0000000,0.0000000,0.0229950,0.0002008,0.0000000,0.0000000,0.0000201,0.0000000,0.0000000,0.0000000,0.0002008,0.0000000,0.0000000,0.0000201,0.0000000,0.0000000,0.0000000,0.0002008,0.0000000,0.0000000,0.0000201,0.0000201,0.0000000,0.0000000,0.0000040,0.0000000,0.0000000,0.0000000,0.0000201,0.0000000,0.0000000,0.0000040,0.0000000,0.0000000,0.0000000,0.0000201,0.0000000,0.0000000,0.0000040
288.2818520,1.0000501,,-0.9751926,-0.2213428,-0.0002766,0.0025755,-0.0036592,-0.0024175,0.0028666,,,,0.9720393,-4.2246780,-11.5927038,0.0000000,0.0000000,0.0000000,0.0200010,0.0002016,0.0000000,0.0000000,0.0000201,0.0000000,0.0000000,0.0000000,0.0002016,0.0000000,0.0000000,0.0000201,0.0000000,0.0000000,0.0000000,0.0002016,0.0000000,0.0000000,0.0000201,0.0000201,0.0000000,0.0000000,0.0000040,0.0000000,0.0000000,0.0000000,0.0000201,0.0000000,0.0000000,0.0000040,0.0000000,0.0000000,0.0000000,0.0000201,0.0000000,0.0000000,0.0000040
288.3026380,1.0505501,,-0.9751925,-0.2213429,-0.0002847,0.0025838,-0.0004868,-0.0014300,0.0036306,,,,0.9720393,-4.2246780,-11.5927038,0.0000000,0.0000000,0.0000000,0.0210110,0.0002024,0.0000000,0.0000000,0.0000202,0.0000000,0.0000000,0.0000000,0.0002024,0.0000000,0.0000000,0.0000202,0.0000000,0.0000000,0.0000000,0.0002024,0.0000000,0.0000000,0.0000202,0.0000202,0.0000000,0.0000000,0.0000040,0.0000000,0.0000000,0.0000000,0.0000202,0.0000000,0.0000000,0.0000040,0.0000000,0.0000000,0.0000000,0.0000202,0.0000000,0.0000000,0.0000040
288.3227330,1.0004500,,-0.9751925,-0.2213429,-0.0002895,0.0025963,0.0025566,-0.0062921,-0.0011144,,,,0.9720393,-4.2246780,-11.5927038,0.0000000,0.0000000,0.0000000,0.0200090,0.0002032,0.0000000,0.0000000,0.0000203,0.0000000,0.0000000,0.0000000,0.0002032,0.0000000,0.0000000,0.0000203,0.0000000,0.0000000,0.0000000,0.0002032,0.0000000,0.0000000,0.0000203,0.0000203,0.0000000,0.0000000,0.0000040,0.0000000,0.0000000,0.0000000,0.0000203,0.0000000,0.0000000,0.0000040,0.0000000,0.0000000,0.0000000,0.0000203,0.0000000,0.0000000,0.0000040
288.3386390,,1.0000100,-0.9751925,-0.2213429,-0.0002895,0.0025963,,,,0.0000000,0.0000000,0.0000000,0.9720393,-4.2246780,-11.5927038,0.0000000,0.0000000,0.0000000,0.1000010,0.0001992,0.0000000,0.0000000,0.0000199,0.0000000,0.0000000,0.0000000,0.0001992,0.0000000,0.0000000,0.0000199,0.0000000,0.0000000,0.0000000,0.0001992,0.0000000,0.0000000,0.0000199,0.0000199,0.0000000,0.0000000,0.0000040,0.0000000,0.0000000,0.0000000,0.0000199,0.0000000,0.0000000,0.0000040,0.0000000,0.0000000,0.0000000,0.0000199,0.0000000,0.0000000,0.0000040
288.3523470,0.9991001,,-0.9751925,-0.2213429,-0.0002869,0.0025973,0.0016521,0.0015231,0.0013959,,,,0.9720393,-4.2246780,-11.5927038,0.0000000,0.0000000,0.0000000,0.0199820,0.0002000,0.0000000,0.0000000,0.0000200,0.0000000,0.0000000,0.0000000,0.0002000,0.0000000,0.0000000,0.0000200,0.0000000,0.0000000,0.0000000,0.0002000,0.0000000,0.0000000,0.0000200,0.0000200,0.0000000,0.0000000,0.0000040,0.0000000,0.0000000,0.0000000,0.0000200,0.0000000,0.0000000,0.0000040,0.0000000,0.0000000,0.0000000,0.0000200,0.0000000,0.0000000,0.0000040
288.3655780,1.1498500,,-0.9751925,-0.2213428,-0.0002740,0.0026090,0.0021917,-0.0001540,0.0021628,,,,0.9720393,-4.2246780,-11.5927038,0.0000000,0.0000000,0.0000000,0.0229970,0.0002009,0.0000000,0.0000000,0.0000201,0.0000000,0.0000000,0.0000000,0.0002009,0.0000000,0.0000000,0.0000201,0.0000000,0.0000000,0.0000000,0.0002009,0.0000000,0.0000000,0.0000201,0.0000201,0.0000000,0.0000000,0.0000040,0.0000000,0.0000000,0.0000000,0.0000201,0.0000000,0.0000000,0.0000040,0.0000000,0.0000000,0.0000000,0.0000201,0.0000000,0.0000000,0.0000040
288.3870510,1.0000000,,-0.9751925,-0.2213428,-0.0002688,0.0026201,-0.0021848,-0.0031821,-0.0016041,,,,0.9720393,-4.2246780,-11.5927038,0.0000000,0.0000000,0.0000000,0.0200000,0.0002017,0.0000000,0.0000000,0.0000201,0.0000000,0.0000000,0.0000000,0.0002017,0.0000000,0.0000000,0.0000201,0.0000000,0.0000000,0.0000000,0.0002017,0.0000000,0.0000000,0.0000201,0.0000201,0.0000000,0.0000000,0.0000040,0.0000000,0.0000000,0.0000000,0.0000201,0.0000000,0.0000000,0.0000040,0.0000000,0.0000000,0.0000000,0.0000201,0.0000000,0.0000000,0.0000040
288.4058820,1.0005500,,-0.9751925,-0.2213428,-0.0002708,0.0026209,-0.0002226,-0.0000652,0.0072546,,,,0.9720393,-4.2246780,-11.5927038,0.0000000,0.0000000,0.0000000,0.0200110,0.0002025,0.0000000,0.0000000,0.0000202,0.0000000,0.0000000,0.0000000,0.0002025,0.0000000,0.0000000,0.0000202,0.0000000,0.0000000,0.0000000,0.0002025,0.0000000,0.0000000,0.0000202,0.0000202,0.0000000,0.0000000,0.0000040,0.0000000,0.0000000,0.0000000,0.0000202,0.0000000,0.0000000,0.0000040,0.0000000,0.0000000,0.0000000,0.0000202,0.0000000,0.0000000,0.0000040
288.4281460,,0.9999900,-0.9751924,-0.2213428,-0.0002928,0.0026393,,,,0.0000000,0.0000000,0.0000000,0.9720393,-4.2246780,-11.5927038,0.0000000,0.0000000,0.0000000,0.0999990,0.0001985,0.0000000,0.0000000,0.0000198,0.0000000,0.0000000,0.0000000,0.0001985,0.0000000,0.0000000,0.0000198,0.0000000,0.0000000,0.0000000,0.0001985,0.0000000,0.0000000,0.0000198,0.0000198,0.0000000,0.0000000,0.0000040,0.0000000,0.0000000,0.0000000,0.0000198,0.0000000,0.0000000,0.0000040,0.0000000,0.0000000,0.0000000,0.0000198,0.0000000,0.0000000,0.0000040
288.4415280,1.0997500,,-0.9751924,-0.2213428,-0.0002928,0.0026393,-0.0005157,0.0005396,0.0065570,,,,0.9720393,-4.2246780,-11.5927038,0.0000000,0.0000000,0.0000000,0.0219950,0.0001994,0.0000000,0.0000000,0.0000199,0.0000000,0.0000000,0.0000000,0.0001994,0.0000000,0.0000000,0.0000199,0.0000000,0.0000000,0.0000000,0.0001994,0.0000000,0.0000000,0.0000199,0.0000199,0.0000000,0.0000000,0.0000040,0.0000000,0.0000000,0.0000000,0.0000199,0.0000000,0.0000000,0.0000040,0.0000000,0.0000000,0.0000000,0.0000199,0.0000000,0.0000000,0.0000040
288.4548690,1.3496500,,-0.9751924,-0.2213429,-0.0003084,0.0026470,-0.0001815,0.0035199,0.0069406,,,,0.9720393,-4.2246780,-11.5927038,0.0000000,0.0000000,0.0000000,0.0269930,0.0002004,0.0000000,0.0000000,0.0000200,0.0000000,0.0000000,0.0000000,0.0002004,0.0000000,0.0000000,0.0000200,0.0000000,0.0000000,0.0000000,0.0002004,0.0000000,0.0000000,0.0000200,0.0000200,0.0000000,0.0000000,0.0000040,0.0000000,0.0000000,0.0000000,0.0000200,0.0000000,0.0000000,0.0000040,0.0000000,0.0000000,0.0000000,0.0000200,0.0000000,0.0000000,0.0000040
288.4744390,1.0001501,,-0.9751924,-0.2213429,-0.0003115,0.0026521,-0.0039131,0.0013556,0.0010289,,,,0.9720393,-4.2246780,-11.5927038,0.0000000,0.0000000,0.0000000,0.0200030,0.0002012,0.0000000,0.0000000,0.0000201,0.0000000,0.0000000,0.0000000,0.0002012,0.0000000,0.0000000,0.0000201,0.0000000,0.0000000,0.0000000,0.0002012,0.0000000,0.0000000,0.0000201,0.0000201,0.0000000,0.0000000,0.0000040,0.0000000,0.0000000,0.0000000,0.0000201,0.0000000,0.0000000,0.0000040,0.0000000,0.0000000,0.0000000,0.0000201,0.0000000,0.0000000,0.0000040
288.4954760,1.0500500,,-0.9751924,-0.2213430,-0.0003296,0.0026389,-0.0026279,0.0041415,-0.0009504,,,,0.9720393,-4.2246780,-11.5927038,0.0000000,0.0000000,0.0000000,0.0210010,0.0002021,0.0000000,0.0000000,0.0000202,0.0000000,0.0000000,0.0000000,0.0002021,0.0000000,0.0000000,0.0000202,0.0000000,0.0000000,0.0000000,0.0002021,0.0000000,0.0000000,0.0000202,0.0000202,0.0000000,0.0000000,0.0000040,0.0000000,0.0000000,0.0000000,0.0000202,0.0000000,0.0000000,0.0000040,0.0000000,0.0000000,0.0000000,0.0000202,0.0000000,0.0000000,0.0000040
288.5169020,1.0498999,,-0.9751924,-0.2213430,-0.0003240,0.0026216,-0.0043962,0.0028337,0.0051400,,,,0.9720393,-4.2246780,-11.5927038,0.0000000,0.0000000,0.0000000,0.0209980,0.0002029,0.0000000,0.0000000,0.0000203,0.0000000,0.0000000,0.0000000,0.0002029,0.0000000,0.0000000,0.0000203,0.0000000,0.0000000,0.0000000,0.0002029,0.0000000,0.0000000,0.0000203,0.0000203,0.0000000,0.0000000,0.0000040,0.0000000,0.0000000,0.0000000,0.0000203,0.0000000,0.0000000,0.0000040,0.0000000,0.0000000,0.0000000,0.0000203,0.0000000,0.0000000,0.0000040
288.5325670,,1.0200000,-0.9751924,-0.2213430,-0.0003240,0.0026216,,,,0.0000000,0.0000000,0.0000000,0.9720393,-4.2246780,-11.5927038,0.0000000,0.0000000,0.0000000,0.1020000,0.0001989,0.0000000,0.0000000,0.0000199,0.0000000,0.0000000,0.0000000,0.0001989,0.0000000,0.0000000,0.0000199,0.0000000,0.0000000,0.0000000,0.0001989,0.0000000,0.0000000,0.0000199,0.0000199,0.0000000,0.0000000,0.0000040,0.0000000,0.0000000,0.0000000,0.0000199,0.0000000,0.0000000,0.0000040,0.0000000,0.0000000,0.0000000,0.0000199,0.0000000,0.0000000,0.0000040
288.5463590,1.0003999,,-0.9751924,-0.2213430,-0.0003398,0.0026111,-0.0018929,-0.0007575,0.0033024,,,,0.9720393,-4.2246780,-11.5927038,0.0000000,0.0000000,0.0000000,0.0200080,0.0001997,0.0000000,0.0000000,0.0000199,0.0000000,0.0000000,0.0000000,0.0001997,0.0000000,0.0000000,0.0000199,0.0000000,0.0000000,0.0000000,0.0001997,0.0000000,0.0000000,0.0000199,0.0000199,0.0000000,0.0000000,0.0000040,0.0000000,0.0000000,0.0000000,0.0000199,0.0000000,0.0000000,0.0000040,0.0000000,0.0000000,0.0000000,0.0000199,0.0000000,0.0000000,0.0000040
288.5597930,1.1495000,,-0.9751924,-0.2213430,-0.0003516,0.0026176,-0.0009007,-0.0032703,-0.0017667,,,,0.9720393,-4.2246780,-11.5927038,0.0000000,0.0000000,0.0000000,0.0229900,0.0002006,0.0000000,0.0000000,0.0000200,0.0000000,0.0000000,0.0000000,0.0002006,0.0000000,0.0000000,0.0000200,0.0000000,0.0000000,0.0000000,0.0002006,0.0000000,0.0000000,0.0000200,0.0000200,0.0000000,0.0000000,0.0000040,0.0000000,0.0000000,0.0000000,0.0000200,0.0000000,0.0000000,0.0000040,0.0000000,0.0000000,0.0000000,0.0000200,0.0000000,0.0000000,0.0000040
288.5805230,1.0501001,,-0.9751923,-0.2213430,-0.0003531,0.0026536,-0.0021212,-0.0044580,0.0015580,,,,0.9720393,-4.2246780,-11.5927038,0.0000000,0.0000000,0.0000000,0.0210020,0.0002015,0.0000000,0.0000000,0.0000201,0.0000000,0.0000000,0.0000000,0.0002015,0.0000000,0.0000000,0.0000201,0.0000000,0.0000000,0.0000000,0.0002015,0.0000000,0.0000000,0.0000201,0.0000201,0.0000000,0.0000000,0.0000040,0.0000000,0.0000000,0.0000000,0.0000201,0.0000000,0.0000000,0.0000040,0.0000000,0.0000000,0.0000000,0.0000201,0.0000000,0.0000000,0.0000040
288.6007630,0.9999500,,-0.9751923,-0.2213430,-0.0003487,0.0026600,0.0087584,-0.0031217,0.0019997,,,,0.9720393,-4.2246780,-11.5927038,0.0000000,0.0000000,0.0000000,0.0199990,0.0002023,0.0000000,0.0000000,0.0000202,0.0000000,0.0000000,0.0000000,0.0002023,0.0000000,0.0000000,0.0000202,0.0000000,0.0000000,0.0000000,0.0002023,0.0000000,0.0000000,0.0000202,0.0000202,0.0000000,0.0000000,0.0000040,0.0000000,0.0000000,0.0000000,0.0000202,0.0000000,0.0000000,0.0000040,0.0000000,0.0000000,0.0000000,0.0000202,0.0000000,0.0000000,0.0000040
288.6221090,1.0001000,,-0.9751923,-0.2213430,-0.0003443,0.0026666,-0.0011750,0.0039018,0.0146717,,,,0.9720393,-4.2246780,-11.5927038,0.0000000,0.0000000,0.0000000,0.0200020,0.0002031,0.0000000,0.0000000,0.0000203,0.0000000,0.0000000,0.0000000,0.0002031,0.0000000,0.0000000,0.0000203,0.0000000,0.0000000,0.0000000,0.0002031,0.0000000,0.0000000,0.0000203,0.0000203,0.0000000,0.0000000,0.0000040,0.0000000,0.0000000,0.0000000,0.0000203,0.0000000,0.0000000,0.0000040,0.0000000,0.0000000,0.0000000,0.0000203,0.0000000,0.0000000,0.0000040
288.6377520,,1.0200499,-0.9751923,-0.2213430,-0.0003443,0.0026477,,,,0.0000000,0.0000000,0.0000000,0.9720393,-4.2246780,-11.5927038,0.0000000,0.0000000,0.0000000,0.1020050,0.0001990,0.0000000,0.0000000,0.0000199,0.0000000,0.0000000,0.0000000,0.0001990,0.0000000,0.0000000,0.0000199,0.0000000,0.0000000,0.0000000,0.0001990,0.0000000,0.0000000,0.0000199,0.0000199,0.0000000,0.0000000,0.0000040,0.0000000,0.0000000,0.0000000,0.0000199,0.0000000,0.0000000,0.0000040,0.0000000,0.0000000,0.0000000,0.0000199,0.0000000,0.0000000,0.0000040
288.6510520,1.0003500,,-0.9751924,-0.2213430,-0.0003382,0.0026477,-0.0005112,0.0056664,0.0051386,,,,0.9720393,-4.2246780,-11.5927038,0.0000000,0.0000000,0.0000000,0.0200070,0.0001998,0.0000000,0.0000000,0.0000200,0.0000000,0.0000000,0.0000000,0.0001998,0.0000000,0.0000000,0.0000200,0.0000000,0.0000000,0.0000000,0.0001998,0.0000000,0.0000000,0.0000200,0.0000200,0.0000000,0.0000000,0.0000040,0.0000000,0.0000000,0.0000000,0.0000200,0.0000000,0.0000000,0.0000040,0.0000000,0.0000000,0.0000000,0.0000200,0.0000000,0.0000000,0.0000040
288.6646220,1.1997501,,-0.9751923,-0.2213430,-0.0003567,0.0026650,0.0048942,0.0007275,-0.0028018,,,,0.9720393,-4.2246780,-11.5927038,0.0000000,0.0000000,0.0000000,0.0239950,0.0002008,0.0000000,0.0000000,0.0000201,0.0000000,0.0000000,0.0000000,0.0002008,0.0000000,0.0000000,0.0000201,0.0000000,0.0000000,0.0000000,0.0002008,0.0000000,0.0000000,0.0000201,0.0000201,0.0000000,0.0000000,0.0000040,0.0000000,0.0000000,0.0000000,0.0000201,0.0000000,0.0000000,0.0000040,0.0000000,0.0000000,0.0000000,0.0000201,0.0000000,0.0000000,0.0000040
288.6846370,0.9999000,,-0.9751923,-0.2213430,-0.0003653,0.0026520,-0.0021610,0.0023703,0.0010405,,,,0.9720393,-4.2246780,-11.5927038,0.0000000,0.0000000,0.0000000,0.0199980,0.0002016,0.0000000,0.0000000,0.0000201,0.0000000,0.0000000,0.0000000,0.0002016,0.0000000,0.0000000,0.0000201,0.0000000,0.0000000,0.0000000,0.0002016,0.0000000,0.0000000,0.0000201,0.0000201,0.0000000,0.0000000,0.0000040,0.0000000,0.0000000,0.0000000,0.0000201,0.0000000,0.0000000,0.0000040,0.0000000,0.0000000,0.0000000,0.0000201,0.0000000,0.0000000,0.0000040
288.7060880,1.0002999,,-0.9751923,-0.2213430,-0.0003360,0.0026500,-0.0044069,0.0007732,-0.0004563,,,,0.9720393,-4.2246780,-11.5927038,0.0000000,0.0000000,0.0000000,0.0200060,0.0002024,0.0000000,0.0000000,0.0000202,0.0000000,0.0000000,0.0000000,0.0002024,0.0000000,0.0000000,0.0000202,0.0000000,0.0000000,0.0000000,0.0002024,0.0000000,0.0000000,0.0000202,0.0000202,0.0000000,0.0000000,0.0000040,0.0000000,0.0000000,0.0000000,0.0000202,0.0000000,0.0000000,0.0000040,0.0000000,0.0000000,0.0000000,0.0000202,0.0000000,0.0000000,0.0000040
288.7248360,1.0000501,,-0.9751923,-0.2213430,-0.0003240,0.0026517,-0.0084596,-0.0009943,-0.0007164,,,,0.9720393,-4.2246780,-11.5927038,0.0000000,0.0000000,0.0000000,0.0200010,0.0002032,0.0000000,0.0000000,0.0000203,0.0000000,0.0000000,0.0000000,0.0002032,0.0000000,0.0000000,0.0000203,0.0000000,0.0000000,0.0000000,0.0002032,0.0000000,0.0000000,0.0000203,0.0000203,0.0000000,0.0000000,0.0000040,0.0000000,0.0000000,0.0000000,0.0000203,0.0000000,0.0000000,0.0000040,0.0000000,0.0000000,0.0000000,0.0000203,0.0000000,0.0000000,0.0000040
288.7404490,,1.0199599,-0.9751923,-0.2213430,-0.0003240,0.0026517,,,,0.0000000,0.0000000,0.0000000,0.9720393,-4.2246780,-11.5927038,0.0000000,0.0000000,0.0000000,0.1019960,0.0001991,0.0000000,0.0000000,0.0000199,0.0000000,0.0000000,0.0000000,0.0001991,0.0000000,0.0000000,0.0000199,0.0000000,0.0000000,0.0000000,0.0001991,0.0000000,0.0000000,0.0000199,0.0000199,0.0000000,0.0000000,0.0000040,0.0000000,0.0000000,0.0000000,0.0000199,0.0000000,0.0000000,0.0000040,0.0000000,0.0000000,0.0000000,0.0000199,0.0000000,0.0000000,0.0000040
288.7542050,0.9996000,,-0.9751923,-0.2213430,-0.0003262,0.0026636,-0.0039170,0.0017993,-0.0052410,,,,0.9720393,-4.2246780,-11.5927038,0.0000000,0.0000000,0.0000000,0.0199920,0.0001999,0.0000000,0.0000000,0.0000200,0.0000000,0.0000000,0.0000000,0.0001999,0.0000000,0.0000000,0.0000200,0.0000000,0.0000000,0.0000000,0.0001999,0.0000000,0.0000000,0.0000200,0.0000200,0.0000000,0.0000000,0.0000040,0.0000000,0.0000000,0.0000000,0.0000200,0.0000000,0.0000000,0.0000040,0.0000000,0.0000000,0.0000000,0.0000200,0.0000000,0.0000000,0.0000040
288.7674510,1.1500000,,-0.9751923,-0.2213430,-0.0003529,0.0026470,0.0024666,0.0050958,-0.0006674,,,,0.9720393,-4.2246780,-11.5927038,0.0000000,0.0000000,0.0000000,0.0230000,0.0002009,0.0000000,0.0000000,0.0000201,0.0000000,0.0000000,0.0000000,0.0002009,0.0000000,0.0000000,0.0000201,0.0000000,0.0000000,0.0000000,0.0002009,0.0000000,0.0000000,0.0000201,0.0000201,0.0000000,0.0000000,0.0000040,0.0000000,0.0000000,0.0000000,0.0000201,0.0000000,0.0000000,0.0000040,0.0000000,0.0000000,0.0000000,0.0000201,0.0000000,0.0000000,0.0000040
288.7886470,1.0501001,,-0.9751923,-0.2213431,-0.0003719,0.0026333,0.0005237,0.0040433,0.0033284,,,,0.9720393,-4.2246780,-11.5927038,0.0000000,0.0000000,0.0000000,0.0210020,0.0002017,0.0000000,0.0000000,0.0000201,0.0000000,0.0000000,0.0000000,0.0002017,0.0000000,0.0000000,0.0000201,0.0000000,0.0000000,0.0000000,0.0002017,0.0000000,0.0000000,0.0000201,0.0000201,0.0000000,0.0000000,0.0000040,0.0000000,0.0000000,0.0000000,0.0000201,0.0000000,0.0000000,0.0000040,0.0000000,0.0000000,0.0000000,0.0000201,0.0000000,0.0000000,0.0000040
288.8110740,1.0502501,,-0.9751924,-0.2213431,-0.0003567,0.0026094,-0.0062536,0.0069121,0.0045939,,,,0.9720393,-4.2246780,-11.5927038,0.0000000,0.0000000,0.0000000,0.0210050,0.0002025,0.0000000,0.0000000,0.0000202,0.0000000,0.0000000,0.0000000,0.0002025,0.0000000,0.0000000,0.0000202,0.0000000,0.0000000,0.0000000,0.0002025,0.0000000,0.0000000,0.0000202,0.0000202,0.0000000,0.0000000,0.0000040,0.0000000,0.0000000,0.0000000,0.0000202,0.0000000,0.0000000,0.0000040,0.0000000,0.0000000,0.0000000,0.0000202,0.0000000,0.0000000,0.0000040
288.8296330,0.9999000,,-0.9751925,-0.2213431,-0.0003425,0.0025876,-0.0054767,0.0093078,0.0032735,,,,0.9720393,-4.2246780,-11.5927038,0.0000000,0.0000000,0.0000000,0.0199980,0.0002034,0.0000000,0.0000000,0.0000203,0.0000000,0.0000000,0.0000000,0.0002034,0.0000000,0.0000000,0.0000203,0.0000000,0.0000000,0.0000000,0.0002034,0.0000000,0.0000000,0.0000203,0.0000203,0.0000000,0.0000000,0.0000040,0.0000000,0.0000000,0.0000000,0.0000203,0.0000000,0.0000000,0.0000040,0.0000000,0.0000000,0.0000000,0.0000203,0.0000000,0.0000000,0.0000040
288.8456800,,1.0000600,-0.9751925,-0.2213431,-0.0003425,0.0025876,,,,0.0000000,0.0000000,0.0000000,0.9720393,-4.2246780,-11.5927038,0.0000000,0.0000000,0.0000000,0.1000060,0.0001993,0.0000000,0.0000000,0.0000199,0.0000000,0.0000000,0.0000000,0.0001993,0.0000000,0.0000000,0.0000199,0.0000000,0.0000000,0.0000000,0.0001993,0.0000000,0.0000000,0.0000199,0.0000199,0.0000000,0.0000000,0.0000040,0.0000000,0.0000000,0.0000000,0.0000199,0.0000000,0.0000000,0.0000040,0.0000000,0.0000000,0.0000000,0.0000199,0.0000000,0.0000000,0.0000040
288.8593080,1.0000501,,-0.9751925,-0.2213431,-0.0003359,0.0025720,-0.0024026,0.0065918,-0.0017812,,,,0.9720393,-4.2246780,-11.5927038,0.0000000,0.0000000,0.0000000,0.0200010,0.0002001,0.0000000,0.0000000,0.0000200,0.0000000,0.0000000,0.0000000,0.0002001,0.0000000,0.0000000,0.0000200,0.0000000,0.0000000,0.0000000,0.0002001,0.0000000,0.0000000,0.0000200,0.0000200,0.0000000,0.0000000,0.0000040,0.0000000,0.0000000,0.0000000,0.0000200,0.0000000,0.0000000,0.0000040,0.0000000,0.0000000,0.0000000,0.0000200,0.0000000,0.0000000,0.0000040
288.8724370,1.1496000,,-0.9751925,-0.2213432,-0.0003655,0.0025676,0.0095714,0.0057144,-0.0030879,,,,0.9720393,-4.2246780,-11.5927038,0.0000000,0.0000000,0.0000000,0.0229920,0.0002010,0.0000000,0.0000000,0.0000201,0.0000000,0.0000000,0.0000000,0.0002010,0.0000000,0.0000000,0.0000201,0.0000000,0.0000000,0.0000000,0.0002010,0.0000000,0.0000000,0.0000201,0.0000201,0.0000000,0.0000000,0.0000040,0.0000000,0.0000000,0.0000000,0.0000201,0.0000000,0.0000000,0.0000040,0.0000000,0.0000000,0.0000000,0.0000201,0.0000000,0.0000000,0.0000040
288.8940400,1.0502501,,-0.9751925,-0.2213432,-0.0003942,0.0025505,0.0035726,0.0040169,-0.0027646,,,,0.9720393,-4.2246780,-11.5927038,0.0000000,0.0000000,0.0000000,0.0210050,0.0002019,0.0000000,0.0000000,0.0000202,0.0000000,0.0000000,0.0000000,0.0002019,0.0000000,0.0000000,0.0000202,0.0000000,0.0000000,0.0000000,0.0002019,0.0000000,0.0000000,0.0000202,0.0000202,0.0000000,0.0000000,0.0000040,0.0000000,0.0000000,0.0000000,0.0000202,0.0000000,0.0000000,0.0000040,0.0000000,0.0000000,0.0000000,0.0000202,0.0000000,0.0000000,0.0000040
288.9137380,1.0002000,,-0.9751924,-0.2213433,-0.0004272,0.0025783,0.0075999,-0.0011654,-0.0021147,,,,0.9720393,-4.2246780,-11.5927038,0.0000000,0.0000000,0.0000000,0.0200040,0.0002027,0.0000000,0.0000000,0.0000202,0.0000000,0.0000000,0.0000000,0.0002027,0.0000000,0.0000000,0.0000202,0.0000000,0.0000000,0.0000000,0.0002027,0.0000000,0.0000000,0.0000202,0.0000202,0.0000000,0.0000000,0.0000040,0.0000000,0.0000000,0.0000000,0.0000202,0.0000000,0.0000000,0.0000040,0.0000000,0.0000000,0.0000000,0.0000202,0.0000000,0.0000000,0.0000040
288.9350920,,1.0099900,-0.9751923,-0.2213433,-0.0004427,0.0026087,,,,0.0000000,0.0000000,0.0000000,0.9720393,-4.2246780,-11.5927038,0.0000000,0.0000000,0.0000000,0.1009990,0.0001986,0.0000000,0.0000000,0.0000198,0.0000000,0.0000000,0.0000000,0.0001986,0.0000000,0.0000000,0.0000198,0.0000000,0.0000000,0.0000000,0.0001986,0.0000000,0.0000000,0.0000198,0.0000198,0.0000000,0.0000000,0.0000040,0.0000000,0.0000000,0.0000000,0.0000198,0.0000000,0.0000000,0.0000040,0.0000000,0.0000000,0.0000000,0.0000198,0.0000000,0.0000000,0.0000040
288.9486970,0.9999500,,-0.9751923,-0.2213433,-0.0004427,0.0026087,-0.0008921,-0.0064039,-0.0047195,,,,0.9720393,-4.2246780,-11.5927038,0.0000000,0.0000000,0.0000000,0.0199990,0.0001994,0.0000000,0.0000000,0.0000199,0.0000000,0.0000000,0.0000000,0.0001994,0.0000000,0.0000000,0.0000199,0.0000000,0.0000000,0.0000000,0.0001994,0.0000000,0.0000000,0.0000199,0.0000199,0.0000000,0.0000000,0.0000040,0.0000000,0.0000000,0.0000000,0.0000199,0.0000000,0.0000000,0.0000040,0.0000000,0.0000000,0.0000000,0.0000199,0.0000000,0.0000000,0.0000040
288.9617880,1.3996500,,-0.9751923,-0.2213434,-0.0004739,0.0026009,0.0019114,0.0009255,-0.0045570,,,,0.9720393,-4.2246780,-11.5927038,0.0000000,0.0000000,0.0000000,0.0279930,0.0002006,0.0000000,0.0000000,0.0000200,0.0000000,0.0000000,0.0000000,0.0002006,0.0000000,0.0000000,0.0000200,0.0000000,0.0000000,0.0000000,0.0002006,0.0000000,0.0000000,0.0000200,0.0000200,0.0000000,0.0000000,0.0000040,0.0000000,0.0000000,0.0000000,0.0000200,0.0000000,0.0000000,0.0000040,0.0000000,0.0000000,0.0000000,0.0000200,0.0000000,0.0000000,0.0000040
288.9818050,1.0005500,,-0.9751924,-0.2213434,-0.0004713,0.0025856,-0.0061701,0.0040867,-0.0030109,,,,0.9720393,-4.2246780,-11.5927038,0.0000000,0.0000000,0.0000000,0.0200110,0.0002014,0.0000000,0.0000000,0.0000201,0.0000000,0.0000000,0.0000000,0.0002014,0.0000000,0.0000000,0.0000201,0.0000000,0.0000000,0.0000000,0.0002014,0.0000000,0.0000000,0.0000201,0.0000201,0.0000000,0.0000000,0.0000040,0.0000000,0.0000000,0.0000000,0.0000201,0.0000000,0.0000000,0.0000040,0.0000000,0.0000000,0.0000000,0.0000201,0.0000000,0.0000000,0.0000040
289.0015310,0.9995500,,-0.9751921,-0.2213435,-0.0005379,0.0026547,0.0052462,-0.0086149,-0.0076166,,,,0.9720393,-4.2246780,-11.5927038,0.0000000,0.0000000,0.0000000,0.0199910,0.0002022,0.0000000,0.0000000,0.0000202,0.0000000,0.0000000,0.0000000,0.0002022,0.0000000,0.0000000,0.0000202,0.0000000,0.0000000,0.0000000,0.0002022,0.0000000,0.0000000,0.0000202,0.0000202,0.0000000,0.0000000,0.0000040,0.0000000,0.0000000,0.0000000,0.0000202,0.0000000,0.0000000,0.0000040,0.0000000,0.0000000,0.0000000,0.0000202,0.0000000,0.0000000,0.0000040
289.0225040,1.0500000,,-0.9751641,-0.2214610,-0.0004674,0.0030957,0.0129304,-0.1601226,0.0518481,,,,0.9720393,-4.2246780,-11.5927038,0.0000000,0.0000000,0.0000000,0.0210000,0.0002030,0.0000000,0.0000000,0.0000203,0.0000000,0.0000000,0.0000000,0.0002030,0.0000000,0.0000000,0.0000203,0.0000000,0.0000000,0.0000000,0.0002030,0.0000000,0.0000000,0.0000203,0.0000203,0.0000000,0.0000000,0.0000040,0.0000000,0.0000000,0.0000000,0.0000203,0.0000000,0.0000000,0.0000040,0.0000000,0.0000000,0.0000000,0.0000203,0.0000000,0.0000000,0.0000040
289.0387720,,1.0200499,-0.9751641,-0.2214610,-0.0004674,0.0030957,,,,0.0000000,0.0000000,0.0000000,0.9720393,-4.2246780,-11.5927038,0.0000000,0.0000000,0.0000000,0.1020050,0.0001990,0.0000000,0.0000000,0.0000199,0.0000000,0.0000000,0.0000000,0.0001990,0.0000000,0.0000000,0.0000199,0.0000000,0.0000000,0.0000000,0.0001990,0.0000000,0.0000000,0.0000199,0.0000199,0.0000000,0.0000000,0.0000040,0.0000000,0.0000000,0.0000000,0.0000199,0.0000000,0.0000000,0.0000040,0.0000000,0.0000000,0.0000000,0.0000199,0.0000000,0.0000000,0.0000040
289.0510250,1.1000000,,-0.9751432,-0.2215466,-0.0003409,0.0035248,0.0014756,-0.1243423,0.0451959,,,,0.9720393,-4.2246780,-11.5927038,0.0000000,0.0000000,0.0000000,0.0220000,0.0001998,0.0000000,0.0000000,0.0000200,0.0000000,0.0000000,0.0000000,0.0001998,0.0000000,0.0000000,0.0000200,0.0000000,0.0000000,0.0000000,0.0001998,0.0000000,0.0000000,0.0000200,0.0000200,0.0000000,0.0000000,0.0000040,0.0000000,0.0000000,0.0000000,0.0000200,0.0000000,0.0000000,0.0000040,0.0000000,0.0000000,0.0000000,0.0000200,0.0000000,0.0000000,0.0000040
289.0660150,1.0498999,,-0.9751379,-0.2215644,-0.0002539,0.0038476,-0.0076698,-0.0964653,0.0350339,,,,0.9720393,-4.2246780,-11.5927038,0.0000000,0.0000000,0.0000000,0.0209980,0.0002007,0.0000000,0.0000000,0.0000200,0.0000000,0.0000000,0.0000000,0.0002007,0.0000000,0.0000000,0.0000200,0.0000000,0.0000000,0.0000000,0.0002007,0.0000000,0.0000000,0.0000200,0.0000200,0.0000000,0.0000000,0.0000040,0.0000000,0.0000000,0.0000000,0.0000200,0.0000000,0.0000000,0.0000040,0.0000000,0.0000000,0.0000000,0.0000200,0.0000000,0.0000000,0.0000040
289.0858530,1.0003500,,-0.9751458,-0.2215302,-0.0002436,0.0038634,-0.0022327,-0.0554806,0.0394820,,,,0.9720393,-4.2246780,-11.5927038,0.0000000,0.0000000,0.0000000,0.0200070,0.0002015,0.0000000,0.0000000,0.0000201,0.0000000,0.0000000,0.0000000,0.0002015,0.0000000,0.0000000,0.0000201,0.0000000,0.0000000,0.0000000,0.0002015,0.0000000,0.0000000,0.0000201,0.0000201,0.0000000,0.0000000,0.0000040,0.0000000,0.0000000,0.0000000,0.0000201,0.0000000,0.0000000,0.0000040,0.0000000,0.0000000,0.0000000,0.0000201,0.0000000,0.0000000,0.0000040
289.1055600,0.9997000,,-0.9751362,-0.2215678,-0.0002177,0.0041221,-0.0344950,-0.0540235,-0.0044442,,,,0.9720393,-4.2246780,-11.5927038,0.0000000,0.0000000,0.0000000,0.0199940,0.0002023,0.0000000,0.0000000,0.0000202,0.0000000,0.0000000,0.0000000,0.0002023,0.0000000,0.0000000,0.0000202,0.0000000,0.0000000,0.0000000,0.0002023,0.0000000,0.0000000,0.0000202,0.0000202,0.0000000,0.0000000,0.0000040,0.0000000,0.0000000,0.0000000,0.0000202,0.0000000,0.0000000,0.0000040,0.0000000,0.0000000,0.0000000,0.0000202,0.0000000,0.0000000,0.0000040
289.1269920,1.0500500,,-0.9751239,-0.2216195,-0.0001812,0.0042456,-0.0637639,-0.0100821,-0.0447178,,,,0.9720256,-4.2246823,-11.5926943,-0.0012976,-0.0003957,0.0009378,0.0210010,0.0002031,0.0000000,0.0000000,0.0000203,0.0000000,0.0000000,0.0000000,0.0002031,0.0000000,0.0000000,0.0000203,0.0000000,0.0000000,0.0000000,0.0002031,0.0000000,0.0000000,0.0000203,0.0000203,0.0000000,0.0000000,0.0000040,0.0000000,0.0000000,0.0000000,0.0000203,0.0000000,0.0000000,0.0000040,0.0000000,0.0000000,0.0000000,0.0000203,0.0000000,0.0000000,0.0000040
289.1437360,,0.9999700,-0.9751239,-0.2216195,-0.0001812,0.0042456,,,,0.0000000,0.0000000,0.0000000,0.9720259,-4.2246823,-11.5926943,-0.0012976,-0.0003957,0.0009378,0.0999970,0.0001991,0.0000000,0.0000000,0.0000199,0.0000000,0.0000000,0.0000000,0.0001991,0.0000000,0.0000000,0.0000199,0.0000000,0.0000000,0.0000000,0.0001991,0.0000000,0.0000000,0.0000199,0.0000199,0.0000000,0.0000000,0.0000040,0.0000000,0.0000000,0.0000000,0.0000199,0.0000000,0.0000000,0.0000040,0.0000000,0.0000000,0.0000000,0.0000199,0.0000000,0.0000000,0.0000040
289.1575440,1.1006500,,-0.9751478,-0.2215145,-0.0001959,0.0042297,0.0529188,-0.1520977,-0.0670519,,,,0.9719930,-4.2246523,-11.5926571,-0.0016913,0.0031147,0.0024437,0.0220130,0.0002000,0.0000000,0.0000000,0.0000200,0.0000000,0.0000000,0.0000000,0.0002000,0.0000000,0.0000000,0.0000200,0.0000000,0.0000000,0.0000000,0.0002000,0.0000000,0.0000000,0.0000200,0.0000200,0.0000000,0.0000000,0.0000040,0.0000000,0.0000000,0.0000000,0.0000200,0.0000000,0.0000000,0.0000040,0.0000000,0.0000000,0.0000000,0.0000200,0.0000000,0.0000000,0.0000040
289.1709280,1.0992000,,-0.9750923,-0.2217521,-0.0001391,0.0045530,-0.0689386,-0.0320043,-0.2442422,,,,0.9719376,-4.2245846,-11.5925446,-0.0033527,0.0030456,0.0078157,0.0219840,0.0002008,0.0000000,0.0000000,0.0000201,0.0000000,0.0000000,0.0000000,0.0002008,0.0000000,0.0000000,0.0000201,0.0000000,0.0000000,0.0000000,0.0002008,0.0000000,0.0000000,0.0000201,0.0000201,0.0000000,0.0000000,0.0000040,0.0000000,0.0000000,0.0000000,0.0000201,0.0000000,0.0000000,0.0000040,0.0000000,0.0000000,0.0000000,0.0000201,0.0000000,0.0000000,0.0000040
289.1905210,1.0002000,,-0.9750576,-0.2218909,-0.0001510,0.0051545,-0.0095364,-0.2052493,-0.1133626,,,,0.9718511,-4.2244878,-11.5923653,-0.0052968,0.0066414,0.0101237,0.0200040,0.0002016,0.0000000,0.0000000,0.0000201,0.0000000,0.0000000,0.0000000,0.0002016,0.0000000,0.0000000,0.0000201,0.0000000,0.0000000,0.0000000,0.0002016,0.0000000,0.0000000,0.0000201,0.0000201,0.0000000,0.0000000,0.0000040,0.0000000,0.0000000,0.0000000,0.0000201,0.0000000,0.0000000,0.0000040,0.0000000,0.0000000,0.0000000,0.0000201,0.0000000,0.0000000,0.0000040
289.2132610,1.0502501,,-0.9750301,-0.2220007,0.0001010,0.0056021,0.0257341,-0.1093385,-0.1446024,,,,0.9718511,-4.2244878,-11.5923653,0.0000000,0.0000000,0.0000000,0.0210050,0.0002025,0.0000000,0.0000000,0.0000202,0.0000000,0.0000000,0.0000000,0.0002025,0.0000000,0.0000000,0.0000202,0.0000000,0.0000000,0.0000000,0.0002025,0.0000000,0.0000000,0.0000202,0.0000202,0.0000000,0.0000000,0.0000040,0.0000000,0.0000000,0.0000000,0.0000202,0.0000000,0.0000000,0.0000040,0.0000000,0.0000000,0.0000000,0.0000202,0.0000000,0.0000000,0.0000040
289.2319460,0.9996500,,-0.9750301,-0.2220069,0.0000103,0.0053739,0.0890389,-0.0223206,-0.1707128,,,,0.9718653,-4.2244763,-11.5923309,0.0014197,0.0011372,0.0034218,0.0199930,0.0002033,0.0000000,0.0000000,0.0000203,0.0000000,0.0000000,0.0000000,0.0002033,0.0000000,0.0000000,0.0000203,0.0000000,0.0000000,0.0000000,0.0002033,0.0000000,0.0000000,0.0000203,0.0000203,0.0000000,0.0000000,0.0000040,0.0000000,0.0000000,0.0000000,0.0000203,0.0000000,0.0000000,0.0000040,0.0000000,0.0000000,0.0000000,0.0000203,0.0000000,0.0000000,0.0000040
289.2468460,,0.9999800,-0.9750301,-0.2220069,0.0000103,0.0053739,,,,0.0000000,0.0000000,0.0000000,0.9718685,-4.2244806,-11.5923386,0.0014200,0.0011368,0.0034210,0.0999980,0.0001993,0.0000000,0.0000000,0.0000199,0.0000000,0.0000000,0.0000000,0.0001993,0.0000000,0.0000000,0.0000199,0.0000000,0.0000000,0.0000000,0.0001993,0.0000000,0.0000000,0.0000199,0.0000199,0.0000000,0.0000000,0.0000040,0.0000000,0.0000000,0.0000000,0.0000199,0.0000000,0.0000000,0.0000040,0.0000000,0.0000000,0.0000000,0.0000199,0.0000000,0.0000000,0.0000040
289.2606440,0.9999500,,-0.9750075,-0.2220954,0.0000544,0.0057941,0.0268803,-0.1391053,-0.0648867,,,,0.9718897,-4.2244306,-11.5922565,0.0007032,0.0038623,0.0047514,0.0199990,0.0002000,0.0000000,0.0000000,0.0000200,0.0000000,0.0000000,0.0000000,0.0002000,0.0000000,0.0000000,0.0000200,0.0000000,0.0000000,0.0000000,0.0002000,0.0000000,0.0000000,0.0000200,0.0000200,0.0000000,0.0000000,0.0000040,0.0000000,0.0000000,0.0000000,0.0000200,0.0000000,0.0000000,0.0000040,0.0000000,0.0000000,0.0000000,0.0000200,0.0000000,0.0000000,0.0000040
289.2739430,1.1000500,,-0.9750173,-0.2220599,0.0000447,0.0055097,0.0975237,0.0505417,0.1626021,,,,0.9718897,-4.2244306,-11.5922565,0.0000000,0.0000000,0.0000000,0.0220010,0.0002009,0.0000000,0.0000000,0.0000201,0.0000000,0.0000000,0.0000000,0.0002009,0.0000000,0.0000000,0.0000201,0.0000000,0.0000000,0.0000000,0.0002009,0.0000000,0.0000000,0.0000201,0.0000201,0.0000000,0.0000000,0.0000040,0.0000000,0.0000000,0.0000000,0.0000201,0.0000000,0.0000000,0.0000040,0.0000000,0.0000000,0.0000000,0.0000201,0.0000000,0.0000000,0.0000040
289.2937440,1.0003500,,-0.9750291,-0.2220027,-0.0000429,0.0057241,0.0658746,-0.0675942,0.1474327,,,,0.9718957,-4.2244124,-11.5922861,0.0005953,0.0018225,-0.0029310,0.0200070,0.0002017,0.0000000,0.0000000,0.0000202,0.0000000,0.0000000,0.0000000,0.0002017,0.0000000,0.0000000,0.0000202,0.0000000,0.0000000,0.0000000,0.0002017,0.0000000,0.0000000,0.0000202,0.0000202,0.0000000,0.0000000,0.0000040,0.0000000,0.0000000,0.0000000,0.0000202,0.0000000,0.0000000,0.0000040,0.0000000,0.0000000,0.0000000,0.0000202,0.0000000,0.0000000,0.0000040
289.3152300,1.0001501,,-0.9750416,-0.2219582,-0.0000379,0.0052900,0.0022900,0.1581890,0.0678341,,,,0.9719217,-4.2244043,-11.5923586,0.0020031,-0.0009959,-0.0043202,0.0200030,0.0002025,0.0000000,0.0000000,0.0000202,0.0000000,0.0000000,0.0000000,0.0002025,0.0000000,0.0000000,0.0000202,0.0000000,0.0000000,0.0000000,0.0002025,0.0000000,0.0000000,0.0000202,0.0000202,0.0000000,0.0000000,0.0000040,0.0000000,0.0000000,0.0000000,0.0000202,0.0000000,0.0000000,0.0000040,0.0000000,0.0000000,0.0000000,0.0000202,0.0000000,0.0000000,0.0000040
289.3360220,,1.0000199,-0.9750601,-0.2218736,-0.0003423,0.0054306,,,,-0.1368791,-0.0743504,-0.0004570,0.9692034,-4.2258821,-11.5923672,0.0017316,-0.0011435,-0.0043211,0.1000020,0.0001985,0.0000000,0.0000000,0.0000198,0.0000000,0.0000000,0.0000000,0.0001985,0.0000000,0.0000000,0.0000198,0.0000000,0.0000000,0.0000000,0.0001985,0.0000000,0.0000000,0.0000198,0.0000198,0.0000000,0.0000000,0.0000040,0.0000000,0.0000000,0.0000000,0.0000198,0.0000000,0.0000000,0.0000040,0.0000000,0.0000000,0.0000000,0.0000198,0.0000000,0.0000000,0.0000040
289.3498280,1.0497501,,-0.9750601,-0.2218736,-0.0003423,0.0054306,0.0459143,-0.1302103,0.1256834,,,,0.9692364,-4.2258754,-11.5924854,0.0014132,0.0017664,-0.0069282,0.0209950,0.0001994,0.0000000,0.0000000,0.0000199,0.0000000,0.0000000,0.0000000,0.0001994,0.0000000,0.0000000,0.0000199,0.0000000,0.0000000,0.0000000,0.0001994,0.0000000,0.0000000,0.0000199,0.0000199,0.0000000,0.0000000,0.0000040,0.0000000,0.0000000,0.0000000,0.0000199,0.0000000,0.0000000,0.0000040,0.0000000,0.0000000,0.0000000,0.0000199,0.0000000,0.0000000,0.0000040
289.3628890,1.3996000,,-0.9750809,-0.2217780,-0.0002962,0.0056083,-0.0244672,0.0711024,0.1355651,,,,0.9692792,-4.2258544,-11.5927324,0.0016493,-0.0002822,-0.0107463,0.0279920,0.0002005,0.0000000,0.0000000,0.0000200,0.0000000,0.0000000,0.0000000,0.0002005,0.0000000,0.0000000,0.0000200,0.0000000,0.0000000,0.0000000,0.0002005,0.0000000,0.0000000,0.0000200,0.0000200,0.0000000,0.0000000,0.0000040,0.0000000,0.0000000,0.0000000,0.0000200,0.0000000,0.0000000,0.0000040,0.0000000,0.0000000,0.0000000,0.0000200,0.0000000,0.0000000,0.0000040
289.3836420,1.0503500,,-0.9750708,-0.2218272,-0.0003779,0.0054167,0.0010568,-0.1017855,-0.0015763,,,,0.9693044,-4.2258401,-11.5929575,0.0007444,0.0016547,-0.0106909,0.0210070,0.0002013,0.0000000,0.0000000,0.0000201,0.0000000,0.0000000,0.0000000,0.0002013,0.0000000,0.0000000,0.0000201,0.0000000,0.0000000,0.0000000,0.0002013,0.0000000,0.0000000,0.0000201,0.0000201,0.0000000,0.0000000,0.0000040,0.0000000,0.0000000,0.0000000,0.0000201,0.0000000,0.0000000,0.0000040,0.0000000,0.0000000,0.0000000,0.0000201,0.0000000,0.0000000,0.0000040
289.4049400,1.0500000,,-0.9750881,-0.2217495,-0.0002055,0.0055019,-0.0178279,0.1840468,-0.0325569,,,,0.9693044,-4.2258401,-11.5929575,0.0000000,0.0000000,0.0000000,0.0210000,0.0002022,0.0000000,0.0000000,0.0000202,0.0000000,0.0000000,0.0000000,0.0002022,0.0000000,0.0000000,0.0000202,0.0000000,0.0000000,0.0000000,0.0002022,0.0000000,0.0000000,0.0000202,0.0000202,0.0000000,0.0000000,0.0000040,0.0000000,0.0000000,0.0000000,0.0000202,0.0000000,0.0000000,0.0000040,0.0000000,0.0000000,0.0000000,0.0000202,0.0000000,0.0000000,0.0000040
289.4275180,1.0498000,,-0.9750842,-0.2217757,-0.0003810,0.0050980,-0.0458936,0.0708442,-0.2191746,,,,0.9693021,-4.2258592,-11.5929098,-0.0002185,-0.0018043,0.0045841,0.0209960,0.0002030,0.0000000,0.0000000,0.0000203,0.0000000,0.0000000,0.0000000,0.0002030,0.0000000,0.0000000,0.0000203,0.0000000,0.0000000,0.0000000,0.0002030,0.0000000,0.0000000,0.0000203,0.0000203,0.0000000,0.0000000,0.0000040,0.0000000,0.0000000,0.0000000,0.0000203,0.0000000,0.0000000,0.0000040,0.0000000,0.0000000,0.0000000,0.0000203,0.0000000,0.0000000,0.0000040
289.4434470,,1.0199200,-0.9750842,-0.2216946,-0.0003309,0.0054915,,,,-0.1676992,-0.0892418,-0.0006478,0.9659636,-4.2276354,-11.5929117,-0.0005520,-0.0019817,0.0045839,0.1019920,0.0001990,0.0000000,0.0000000,0.0000199,0.0000000,0.0000000,0.0000000,0.0001990,0.0000000,0.0000000,0.0000199,0.0000000,0.0000000,0.0000000,0.0001990,0.0000000,0.0000000,0.0000199,0.0000199,0.0000000,0.0000000,0.0000040,0.0000000,0.0000000,0.0000000,0.0000199,0.0000000,0.0000000,0.0000040,0.0000000,0.0000000,0.0000000,0.0000199,0.0000000,0.0000000,0.0000040
289.4573940,1.0006001,,-0.9751005,-0.2216946,-0.0003309,0.0054915,-0.0057196,-0.0184719,-0.0993639,,,,0.9659500,-4.2276726,-11.5928001,-0.0008114,-0.0017195,0.0065758,0.0200120,0.0001998,0.0000000,0.0000000,0.0000200,0.0000000,0.0000000,0.0000000,0.0001998,0.0000000,0.0000000,0.0000200,0.0000000,0.0000000,0.0000000,0.0001998,0.0000000,0.0000000,0.0000200,0.0000200,0.0000000,0.0000000,0.0000040,0.0000000,0.0000000,0.0000000,0.0000200,0.0000000,0.0000000,0.0000040,0.0000000,0.0000000,0.0000000,0.0000200,0.0000000,0.0000000,0.0000040
289.4708100,1.2494000,,-0.9750870,-0.2217682,-0.0002740,0.0048576,-0.0279300,-0.1013533,-0.1937402,,,,0.9659082,-4.2276912,-11.5925751,-0.0025282,0.0002156,0.0114386,0.0249880,0.0002008,0.0000000,0.0000000,0.0000201,0.0000000,0.0000000,0.0000000,0.0002008,0.0000000,0.0000000,0.0000201,0.0000000,0.0000000,0.0000000,0.0002008,0.0000000,0.0000000,0.0000201,0.0000201,0.0000000,0.0000000,0.0000040,0.0000000,0.0000000,0.0000000,0.0000201,0.0000000,0.0000000,0.0000040,0.0000000,0.0000000,0.0000000,0.0000201,0.0000000,0.0000000,0.0000040
289.4908950,0.9999500,,-0.9750797,-0.2217895,-0.0000168,0.0053476,0.0350310,-0.1604026,-0.0475842,,,,0.9658501,-4.2276549,-11.5923367,-0.0032818,0.0034008,0.0124253,0.0199990,0.0002016,0.0000000,0.0000000,0.0000201,0.0000000,0.0000000,0.0000000,0.0002016,0.0000000,0.0000000,0.0000201,0.0000000,0.0000000,0.0000000,0.0002016,0.0000000,0.0000000,0.0000201,0.0000201,0.0000000,0.0000000,0.0000040,0.0000000,0.0000000,0.0000000,0.0000201,0.0000000,0.0000000,0.0000040,0.0000000,0.0000000,0.0000000,0.0000201,0.0000000,0.0000000,0.0000040
289.5109270,1.0000000,,-0.9750782,-0.2218087,-0.0000672,0.0047740,0.0508941,-0.0492717,-0.0167273,,,,0.9657894,-4.2275739,-11.5920849,-0.0027897,0.0047264,0.0127712,0.0200000,0.0002024,0.0000000,0.0000000,0.0000202,0.0000000,0.0000000,0.0000000,0.0002024,0.0000000,0.0000000,0.0000202,0.0000000,0.0000000,0.0000000,0.0002024,0.0000000,0.0000000,0.0000202,0.0000202,0.0000000,0.0000000,0.0000040,0.0000000,0.0000000,0.0000000,0.0000202,0.0000000,0.0000000,0.0000040,0.0000000,0.0000000,0.0000000,0.0000202,0.0000000,0.0000000,0.0000040
289.5308140,1.0005500,,-0.9750679,-0.2218475,-0.0000470,0.0050900,0.0061599,-0.0879675,-0.0423221,,,,0.9657894,-4.2275739,-11.5920849,0.0000000,0.0000000,0.0000000,0.0200110,0.0002032,0.0000000,0.0000000,0.0000203,0.0000000,0.0000000,0.0000000,0.0002032,0.0000000,0.0000000,0.0000203,0.0000000,0.0000000,0.0000000,0.0002032,0.0000000,0.0000000,0.0000203,0.0000203,0.0000000,0.0000000,0.0000040,0.0000000,0.0000000,0.0000000,0.0000203,0.0000000,0.0000000,0.0000040,0.0000000,0.0000000,0.0000000,0.0000203,0.0000000,0.0000000,0.0000040
289.5476550,,1.0200700,-0.9750679,-0.2218475,-0.0000470,0.0050900,,,,-0.1716673,-0.0825535,-0.0004492,0.9623746,-4.2292190,-11.5921106,-0.0003411,-0.0001643,-0.0000025,0.1020070,0.0001991,0.0000000,0.0000000,0.0000199,0.0000000,0.0000000,0.0000000,0.0001991,0.0000000,0.0000000,0.0000199,0.0000000,0.0000000,0.0000000,0.0001991,0.0000000,0.0000000,0.0000199,0.0000199,0.0000000,0.0000000,0.0000040,0.0000000,0.0000000,0.0000000,0.0000199,0.0000000,0.0000000,0.0000040,0.0000000,0.0000000,0.0000000,0.0000199,0.0000000,0.0000000,0.0000040
289.5615640,1.0999000,,-0.9750935,-0.2217382,-0.0000800,0.0049544,0.0402351,0.0830075,-0.0839281,,,,0.9623846,-4.2292366,-11.5920906,0.0012503,-0.0014458,0.0018281,0.0219980,0.0002000,0.0000000,0.0000000,0.0000200,0.0000000,0.0000000,0.0000000,0.0002000,0.0000000,0.0000000,0.0000200,0.0000000,0.0000000,0.0000000,0.0002000,0.0000000,0.0000000,0.0000200,0.0000200,0.0000000,0.0000000,0.0000040,0.0000000,0.0000000,0.0000000,0.0000200,0.0000000,0.0000000,0.0000040,0.0000000,0.0000000,0.0000000,0.0000200,0.0000000,0.0000000,0.0000040
289.5748670,1.0994999,,-0.9750799,-0.2217890,-0.0000323,0.0053443,0.0445011,-0.0510408,0.0039039,,,,0.9623846,-4.2292366,-11.5920906,0.0000000,0.0000000,0.0000000,0.0219900,0.0002009,0.0000000,0.0000000,0.0000201,0.0000000,0.0000000,0.0000000,0.0002009,0.0000000,0.0000000,0.0000201,0.0000000,0.0000000,0.0000000,0.0002009,0.0000000,0.0000000,0.0000201,0.0000201,0.0000000,0.0000000,0.0000040,0.0000000,0.0000000,0.0000000,0.0000201,0.0000000,0.0000000,0.0000040,0.0000000,0.0000000,0.0000000,0.0000201,0.0000000,0.0000000,0.0000040
289.5947370,1.0006001,,-0.9750938,-0.2217321,-0.0000895,0.0051619,0.0029406,0.1101684,0.0365970,,,,0.9623846,-4.2292366,-11.5920906,0.0000000,0.0000000,0.0000000,0.0200120,0.0002017,0.0000000,0.0000000,0.0000201,0.0000000,0.0000000,0.0000000,0.0002017,0.0000000,0.0000000,0.0000201,0.0000000,0.0000000,0.0000000,0.0002017,0.0000000,0.0000000,0.0000201,0.0000201,0.0000000,0.0000000,0.0000040,0.0000000,0.0000000,0.0000000,0.0000201,0.0000000,0.0000000,0.0000040,0.0000000,0.0000000,0.0000000,0.0000201,0.0000000,0.0000000,0.0000040
289.6161940,0.9999500,,-0.9750755,-0.2218075,-0.0000177,0.0053801,-0.0285209,-0.0197602,0.0570864,,,,0.9623846,-4.2292366,-11.5920906,0.0000000,0.0000000,0.0000000,0.0199990,0.0002025,0.0000000,0.0000000,0.0000202,0.0000000,0.0000000,0.0000000,0.0002025,0.0000000,0.0000000,0.0000202,0.0000000,0.0000000,0.0000000,0.0002025,0.0000000,0.0000000,0.0000202,0.0000202,0.0000000,0.0000000,0.0000040,0.0000000,0.0000000,0.0000000,0.0000202,0.0000000,0.0000000,0.0000040,0.0000000,0.0000000,0.0000000,0.0000202,0.0000000,0.0000000,0.0000040
289.6348390,0.9998500,,-0.9750855,-0.2217537,0.0000810,0.0057738,-0.0296108,0.0564804,0.0214326,,,,0.9623846,-4.2292366,-11.5920906,0.0000000,0.0000000,0.0000000,0.0199970,0.0002033,0.0000000,0.0000000,0.0000203,0.0000000,0.0000000,0.0000000,0.0002033,0.0000000,0.0000000,0.0000203,0.0000000,0.0000000,0.0000000,0.0002033,0.0000000,0.0000000,0.0000203,0.0000203,0.0000000,0.0000000,0.0000040,0.0000000,0.0000000,0.0000000,0.0000203,0.0000000,0.0000000,0.0000040,0.0000000,0.0000000,0.0000000,0.0000203,0.0000000,0.0000000,0.0000040
289.6507620,,1.0000199,-0.9750855,-0.2217537,0.0000810,0.0057738,,,,-0.2699548,-0.1294819,-0.0007194,0.9570057,-4.2318163,-11.5921049,-0.0005373,-0.0002577,-0.0000015,0.1000020,0.0001992,0.0000000,0.0000000,0.0000199,0.0000000,0.0000000,0.0000000,0.0001992,0.0000000,0.0000000,0.0000199,0.0000000,0.0000000,0.0000000,0.0001992,0.0000000,0.0000000,0.0000199,0.0000199,0.0000000,0.0000000,0.0000040,0.0000000,0.0000000,0.0000000,0.0000199,0.0000000,0.0000000,0.0000040,0.0000000,0.0000000,0.0000000,0.0000199,0.0000000,0.0000000,0.0000040
289.6646900,1.0000000,,-0.9750737,-0.2218081,0.0001653,0.0056859,-0.0236097,-0.0050621,-0.0169021,,,,0.9569902,-4.2318225,-11.5921011,-0.0010059,-0.0003744,0.0003366,0.0200000,0.0002000,0.0000000,0.0000000,0.0000200,0.0000000,0.0000000,0.0000000,0.0002000,0.0000000,0.0000000,0.0000200,0.0000000,0.0000000,0.0000000,0.0002000,0.0000000,0.0000000,0.0000200,0.0000200,0.0000000,0.0000000,0.0000040,0.0000000,0.0000000,0.0000000,0.0000200,0.0000000,0.0000000,0.0000040,0.0000000,0.0000000,0.0000000,0.0000200,0.0000000,0.0000000,0.0000040
289.6776160,1.1496500,,-0.9750799,-0.2217666,0.0004560,0.0061827,-0.0355018,0.0341816,0.0190987,,,,0.9569902,-4.2318225,-11.5921011,0.0000000,0.0000000,0.0000000,0.0229930,0.0002010,0.0000000,0.0000000,0.0000201,0.0000000,0.0000000,0.0000000,0.0002010,0.0000000,0.0000000,0.0000201,0.0000000,0.0000000,0.0000000,0.0002010,0.0000000,0.0000000,0.0000201,0.0000201,0.0000000,0.0000000,0.0000040,0.0000000,0.0000000,0.0000000,0.0000201,0.0000000,0.0000000,0.0000040,0.0000000,0.0000000,0.0000000,0.0000201,0.0000000,0.0000000,0.0000040
289.6988370,1.0500500,,-0.9750867,-0.2217309,0.0004047,0.0064034,-0.0052005,-0.1445837,0.0192768,,,,0.9569754,-4.2317944,-11.5921049,-0.0014129,0.0026953,-0.0003666,0.0210010,0.0002018,0.0000000,0.0000000,0.0000202,0.0000000,0.0000000,0.0000000,0.0002018,0.0000000,0.0000000,0.0000202,0.0000000,0.0000000,0.0000000,0.0002018,0.0000000,0.0000000,0.0000202,0.0000202,0.0000000,0.0000000,0.0000040,0.0000000,0.0000000,0.0000000,0.0000202,0.0000000,0.0000000,0.0000040,0.0000000,0.0000000,0.0000000,0.0000202,0.0000000,0.0000000,0.0000040
289.7211280,1.0508000,,-0.9750820,-0.2217277,0.0006391,0.0071311,-0.0271669,-0.0524707,0.0469309,,,,0.9569754,-4.2317944,-11.5921049,0.0000000,0.0000000,0.0000000,0.0210160,0.0002027,0.0000000,0.0000000,0.0000202,0.0000000,0.0000000,0.0000000,0.0002027,0.0000000,0.0000000,0.0000202,0.0000000,0.0000000,0.0000000,0.0002027,0.0000000,0.0000000,0.0000202,0.0000202,0.0000000,0.0000000,0.0000040,0.0000000,0.0000000,0.0000000,0.0000202,0.0000000,0.0000000,0.0000040,0.0000000,0.0000000,0.0000000,0.0000202,0.0000000,0.0000000,0.0000040
289.7422110,,1.0099699,-0.9750984,-0.2216625,0.0004531,0.0069418,,,,-0.1035937,-0.0496804,-0.0002201,0.9549184,-4.2327814,-11.5921097,-0.0002055,-0.0000986,-0.0000004,0.1009970,0.0001986,0.0000000,0.0000000,0.0000198,0.0000000,0.0000000,0.0000000,0.0001986,0.0000000,0.0000000,0.0000198,0.0000000,0.0000000,0.0000000,0.0001986,0.0000000,0.0000000,0.0000198,0.0000198,0.0000000,0.0000000,0.0000040,0.0000000,0.0000000,0.0000000,0.0000198,0.0000000,0.0000000,0.0000040,0.0000000,0.0000000,0.0000000,0.0000198,0.0000000,0.0000000,0.0000040
289.7555820,0.9994500,,-0.9750984,-0.2216625,0.0004531,0.0069418,-0.0038331,0.2199118,0.0187886,,,,0.9549326,-4.2328234,-11.5921144,0.0016242,-0.0040901,-0.0004365,0.0199890,0.0001994,0.0000000,0.0000000,0.0000199,0.0000000,0.0000000,0.0000000,0.0001994,0.0000000,0.0000000,0.0000199,0.0000000,0.0000000,0.0000000,0.0001994,0.0000000,0.0000000,0.0000199,0.0000199,0.0000000,0.0000000,0.0000040,0.0000000,0.0000000,0.0000000,0.0000199,0.0000000,0.0000000,0.0000040,0.0000000,0.0000000,0.0000000,0.0000199,0.0000000,0.0000000,0.0000040
289.7701550,1.4499000,,-0.9750906,-0.2216783,0.0004957,0.0075048,-0.0393082,0.1758052,0.0015208,,,,0.9549326,-4.2328234,-11.5921144,0.0000000,0.0000000,0.0000000,0.0289980,0.0002006,0.0000000,0.0000000,0.0000200,0.0000000,0.0000000,0.0000000,0.0002006,0.0000000,0.0000000,0.0000200,0.0000000,0.0000000,0.0000000,0.0002006,0.0000000,0.0000000,0.0000200,0.0000200,0.0000000,0.0000000,0.0000040,0.0000000,0.0000000,0.0000000,0.0000200,0.0000000,0.0000000,0.0000040,0.0000000,0.0000000,0.0000000,0.0000200,0.0000000,0.0000000,0.0000040
289.7901400,1.0001501,,-0.9751050,-0.2216301,0.0002550,0.0070501,-0.0018090,0.2676817,0.0012105,,,,0.9549554,-4.2328720,-11.5921154,0.0022816,-0.0048432,-0.0000985,0.0200030,0.0002014,0.0000000,0.0000000,0.0000201,0.0000000,0.0000000,0.0000000,0.0002014,0.0000000,0.0000000,0.0000201,0.0000000,0.0000000,0.0000000,0.0002014,0.0000000,0.0000000,0.0000201,0.0000201,0.0000000,0.0000000,0.0000040,0.0000000,0.0000000,0.0000000,0.0000201,0.0000000,0.0000000,0.0000040,0.0000000,0.0000000,0.0000000,0.0000201,0.0000000,0.0000000,0.0000040
289.8088990,1.0000501,,-0.9750887,-0.2216713,0.0004398,0.0079096,-0.0139584,0.0365737,0.0498454,,,,0.9549554,-4.2328720,-11.5921154,0.0000000,0.0000000,0.0000000,0.0200010,0.0002022,0.0000000,0.0000000,0.0000202,0.0000000,0.0000000,0.0000000,0.0002022,0.0000000,0.0000000,0.0000202,0.0000000,0.0000000,0.0000000,0.0002022,0.0000000,0.0000000,0.0000202,0.0000202,0.0000000,0.0000000,0.0000040,0.0000000,0.0000000,0.0000000,0.0000202,0.0000000,0.0000000,0.0000040,0.0000000,0.0000000,0.0000000,0.0000202,0.0000000,0.0000000,0.0000040
289.8285970,0.9998000,,-0.9751065,-0.2215869,0.0005073,0.0081073,0.0034655,0.0736381,0.0001958,,,,0.9549554,-4.2328720,-11.5921154,0.0000000,0.0000000,0.0000000,0.0199960,0.0002030,0.0000000,0.0000000,0.0000203,0.0000000,0.0000000,0.0000000,0.0002030,0.0000000,0.0000000,0.0000203,0.0000000,0.0000000,0.0000000,0.0002030,0.0000000,0.0000000,0.0000203,0.0000203,0.0000000,0.0000000,0.0000040,0.0000000,0.0000000,0.0000000,0.0000203,0.0000000,0.0000000,0.0000040,0.0000000,0.0000000,0.0000000,0.0000203,0.0000000,0.0000000,0.0000040
289.8452330,,1.0199499,-0.9751065,-0.2215869,0.0005073,0.0081073,,,,-0.1530376,-0.0819617,-0.0005763,0.9519100,-4.2345009,-11.5921268,-0.0003042,-0.0001627,-0.0000011,0.1019950,0.0001989,0.0000000,0.0000000,0.0000199,0.0000000,0.0000000,0.0000000,0.0001989,0.0000000,0.0000000,0.0000199,0.0000000,0.0000000,0.0000000,0.0001989,0.0000000,0.0000000,0.0000199,0.0000199,0.0000000,0.0000000,0.0000040,0.0000000,0.0000000,0.0000000,0.0000199,0.0000000,0.0000000,0.0000040,0.0000000,0.0000000,0.0000000,0.0000199,0.0000000,0.0000000,0.0000040
289.8586520,1.1003000,,-0.9750915,-0.2216273,0.0006697,0.0087582,-0.0075980,0.0620495,0.0434710,,,,0.9519100,-4.2345009,-11.5921268,0.0000000,0.0000000,0.0000000,0.0220060,0.0001998,0.0000000,0.0000000,0.0000200,0.0000000,0.0000000,0.0000000,0.0001998,0.0000000,0.0000000,0.0000200,0.0000000,0.0000000,0.0000000,0.0001998,0.0000000,0.0000000,0.0000200,0.0000200,0.0000000,0.0000000,0.0000040,0.0000000,0.0000000,0.0000000,0.0000200,0.0000000,0.0000000,0.0000040,0.0000000,0.0000000,0.0000000,0.0000200,0.0000000,0.0000000,0.0000040
289.8731910,1.0494500,,-0.9751254,-0.2214710,0.0006471,0.0089481,0.0394673,0.0356863,0.0377725,,,,0.9519212,-4.2345042,-11.5921354,0.0010665,-0.0003040,-0.0008037,0.0209890,0.0002007,0.0000000,0.0000000,0.0000200,0.0000000,0.0000000,0.0000000,0.0002007,0.0000000,0.0000000,0.0000200,0.0000000,0.0000000,0.0000000,0.0002007,0.0000000,0.0000000,0.0000200,0.0000200,0.0000000,0.0000000,0.0000040,0.0000000,0.0000000,0.0000000,0.0000200,0.0000000,0.0000000,0.0000040,0.0000000,0.0000000,0.0000000,0.0000200,0.0000000,0.0000000,0.0000040
289.8917630,1.0001000,,-0.9751363,-0.2214269,0.0004137,0.0088832,0.0052683,-0.2081319,0.0119740,,,,0.9519212,-4.2345042,-11.5921354,0.0000000,0.0000000,0.0000000,0.0200020,0.0002015,0.0000000,0.0000000,0.0000201,0.0000000,0.0000000,0.0000000,0.0002015,0.0000000,0.0000000,0.0000201,0.0000000,0.0000000,0.0000000,0.0002015,0.0000000,0.0000000,0.0000201,0.0000201,0.0000000,0.0000000,0.0000040,0.0000000,0.0000000,0.0000000,0.0000201,0.0000000,0.0000000,0.0000040,0.0000000,0.0000000,0.0000000,0.0000201,0.0000000,0.0000000,0.0000040
289.9118550,1.0004500,,-0.9751353,-0.2214118,0.0007829,0.0093208,-0.0464915,-0.0745173,0.0134638,,,,0.9519064,-4.2344947,-11.5921383,-0.0014844,0.0009477,-0.0002441,0.0200090,0.0002023,0.0000000,0.0000000,0.0000202,0.0000000,0.0000000,0.0000000,0.0002023,0.0000000,0.0000000,0.0000202,0.0000000,0.0000000,0.0000000,0.0002023,0.0000000,0.0000000,0.0000202,0.0000202,0.0000000,0.0000000,0.0000040,0.0000000,0.0000000,0.0000000,0.0000202,0.0000000,0.0000000,0.0000040,0.0000000,0.0000000,0.0000000,0.0000202,0.0000000,0.0000000,0.0000040
289.9327390,1.0495499,,-0.9751613,-0.2213222,0.0006658,0.0087064,-0.0157079,-0.1027265,0.0059385,,,,0.9519064,-4.2344947,-11.5921383,0.0000000,0.0000000,0.0000000,0.0209910,0.0002031,0.0000000,0.0000000,0.0000203,0.0000000,0.0000000,0.0000000,0.0002031,0.0000000,0.0000000,0.0000203,0.0000000,0.0000000,0.0000000,0.0002031,0.0000000,0.0000000,0.0000203,0.0000203,0.0000000,0.0000000,0.0000040,0.0000000,0.0000000,0.0000000,0.0000203,0.0000000,0.0000000,0.0000040,0.0000000,0.0000000,0.0000000,0.0000203,0.0000000,0.0000000,0.0000040
289.9487050,,1.0200000,-0.9751613,-0.2213222,0.0006658,0.0087064,,,,-0.3084380,-0.1563956,-0.0010205,0.9457663,-4.2376084,-11.5921583,-0.0006133,-0.0003110,-0.0000020,0.1020000,0.0001991,0.0000000,0.0000000,0.0000199,0.0000000,0.0000000,0.0000000,0.0001991,0.0000000,0.0000000,0.0000199,0.0000000,0.0000000,0.0000000,0.0001991,0.0000000,0.0000000,0.0000199,0.0000199,0.0000000,0.0000000,0.0000040,0.0000000,0.0000000,0.0000000,0.0000199,0.0000000,0.0000000,0.0000040,0.0000000,0.0000000,0.0000000,0.0000199,0.0000000,0.0000000,0.0000040
289.9623770,1.1004000,,-0.9751651,-0.2212965,0.0006951,0.0089427,-0.0218692,-0.1916602,0.0243697,,,,0.9457663,-4.2376084,-11.5921583,0.0000000,0.0000000,0.0000000,0.0220080,0.0001999,0.0000000,0.0000000,0.0000200,0.0000000,0.0000000,0.0000000,0.0001999,0.0000000,0.0000000,0.0000200,0.0000000,0.0000000,0.0000000,0.0001999,0.0000000,0.0000000,0.0000200,0.0000200,0.0000000,0.0000000,0.0000040,0.0000000,0.0000000,0.0000000,0.0000200,0.0000000,0.0000000,0.0000040,0.0000000,0.0000000,0.0000000,0.0000200,0.0000000,0.0000000,0.0000040
289.9755880,1.0494500,,-0.9751940,-0.2211813,0.0006913,0.0086377,-0.0230882,-0.0233356,0.0128486,,,,0.9457663,-4.2376084,-11.5921583,0.0000000,0.0000000,0.0000000,0.0209890,0.0002008,0.0000000,0.0000000,0.0000201,0.0000000,0.0000000,0.0000000,0.0002008,0.0000000,0.0000000,0.0000201,0.0000000,0.0000000,0.0000000,0.0002008,0.0000000,0.0000000,0.0000201,0.0000201,0.0000000,0.0000000,0.0000040,0.0000000,0.0000000,0.0000000,0.0000201,0.0000000,0.0000000,0.0000040,0.0000000,0.0000000,0.0000000,0.0000201,0.0000000,0.0000000,0.0000040
289.9958130,1.0001501,,-0.9751813,-0.2212327,0.0008983,0.0087441,-0.0160836,-0.1041055,0.0180668,,,,0.9457543,-4.2375908,-11.5921612,-0.0011908,0.0017455,-0.0003257,0.0200030,0.0002016,0.0000000,0.0000000,0.0000201,0.0000000,0.0000000,0.0000000,0.0002016,0.0000000,0.0000000,0.0000201,0.0000000,0.0000000,0.0000000,0.0002016,0.0000000,0.0000000,0.0000201,0.0000201,0.0000000,0.0000000,0.0000040,0.0000000,0.0000000,0.0000000,0.0000201,0.0000000,0.0000000,0.0000040,0.0000000,0.0000000,0.0000000,0.0000201,0.0000000,0.0000000,0.0000040
290.0156730,1.0000000,,-0.9752278,-0.2210442,0.0005590,0.0083291,0.0099559,0.0184657,-0.0215452,,,,0.9457543,-4.2375908,-11.5921612,0.0000000,0.0000000,0.0000000,0.0200000,0.0002024,0.0000000,0.0000000,0.0000202,0.0000000,0.0000000,0.0000000,0.0002024,0.0000000,0.0000000,0.0000202,0.0000000,0.0000000,0.0000000,0.0002024,0.0000000,0.0000000,0.0000202,0.0000202,0.0000000,0.0000000,0.0000040,0.0000000,0.0000000,0.0000000,0.0000202,0.0000000,0.0000000,0.0000040,0.0000000,0.0000000,0.0000000,0.0000202,0.0000000,0.0000000,0.0000040
290.0368440,1.0500000,,-0.9752233,-0.2210600,0.0007021,0.0084436,-0.0417368,-0.1357943,0.0238267,,,,0.9457543,-4.2375908,-11.5921612,0.0000000,0.0000000,0.0000000,0.0210000,0.0002032,0.0000000,0.0000000,0.0000203,0.0000000,0.0000000,0.0000000,0.0002032,0.0000000,0.0000000,0.0000203,0.0000000,0.0000000,0.0000000,0.0002032,0.0000000,0.0000000,0.0000203,0.0000203,0.0000000,0.0000000,0.0000040,0.0000000,0.0000000,0.0000000,0.0000203,0.0000000,0.0000000,0.0000040,0.0000000,0.0000000,0.0000000,0.0000203,0.0000000,0.0000000,0.0000040
290.0528740,,1.0000000,-0.9752233,-0.2210600,0.0007021,0.0084436,,,,-0.1605771,-0.0769131,-0.0004235,0.9425560,-4.2391233,-11.5921698,-0.0003195,-0.0001531,-0.0000008,0.1000000,0.0001992,0.0000000,0.0000000,0.0000199,0.0000000,0.0000000,0.0000000,0.0001992,0.0000000,0.0000000,0.0000199,0.0000000,0.0000000,0.0000000,0.0001992,0.0000000,0.0000000,0.0000199,0.0000199,0.0000000,0.0000000,0.0000040,0.0000000,0.0000000,0.0000000,0.0000199,0.0000000,0.0000000,0.0000040,0.0000000,0.0000000,0.0000000,0.0000199,0.0000000,0.0000000,0.0000040
290.0665460,1.1002500,,-0.9752375,-0.2210103,0.0005567,0.0081000,0.0183467,0.0811202,-0.0159721,,,,0.9425560,-4.2391233,-11.5921698,0.0000000,0.0000000,0.0000000,0.0220050,0.0002001,0.0000000,0.0000000,0.0000200,0.0000000,0.0000000,0.0000000,0.0002001,0.0000000,0.0000000,0.0000200,0.0000000,0.0000000,0.0000000,0.0002001,0.0000000,0.0000000,0.0000200,0.0000200,0.0000000,0.0000000,0.0000040,0.0000000,0.0000000,0.0000000,0.0000200,0.0000000,0.0000000,0.0000040,0.0000000,0.0000000,0.0000000,0.0000200,0.0000000,0.0000000,0.0000040
290.0797590,1.0496501,,-0.9752542,-0.2209585,0.0003322,0.0074871,0.0189924,0.0294670,0.0056401,,,,0.9425560,-4.2391233,-11.5921698,0.0000000,0.0000000,0.0000000,0.0209930,0.0002009,0.0000000,0.0000000,0.0000201,0.0000000,0.0000000,0.0000000,0.0002009,0.0000000,0.0000000,0.0000201,0.0000000,0.0000000,0.0000000,0.0002009,0.0000000,0.0000000,0.0000201,0.0000201,0.0000000,0.0000000,0.0000040,0.0000000,0.0000000,0.0000000,0.0000201,0.0000000,0.0000000,0.0000040,0.0000000,0.0000000,0.0000000,0.0000201,0.0000000,0.0000000,0.0000040
290.0995910,1.0007000,,-0.9752490,-0.2209782,0.0004012,0.0075920,-0.0078531,-0.0567539,0.0342608,,,,0.9425560,-4.2391233,-11.5921698,0.0000000,0.0000000,0.0000000,0.0200140,0.0002017,0.0000000,0.0000000,0.0000201,0.0000000,0.0000000,0.0000000,0.0002017,0.0000000,0.0000000,0.0000201,0.0000000,0.0000000,0.0000000,0.0002017,0.0000000,0.0000000,0.0000201,0.0000201,0.0000000,0.0000000,0.0000040,0.0000000,0.0000000,0.0000000,0.0000201,0.0000000,0.0000000,0.0000040,0.0000000,0.0000000,0.0000000,0.0000201,0.0000000,0.0000000,0.0000040
290.1195620,1.0000501,,-0.9752736,-0.2208870,0.0002063,0.0070636,-0.0221989,0.0729719,-0.0224585,,,,0.9425560,-4.2391233,-11.5921698,0.0000000,0.0000000,0.0000000,0.0200010,0.0002025,0.0000000,0.0000000,0.0000202,0.0000000,0.0000000,0.0000000,0.0002025,0.0000000,0.0000000,0.0000202,0.0000000,0.0000000,0.0000000,0.0002025,0.0000000,0.0000000,0.0000202,0.0000202,0.0000000,0.0000000,0.0000040,0.0000000,0.0000000,0.0000000,0.0000202,0.0000000,0.0000000,0.0000040,0.0000000,0.0000000,0.0000000,0.0000202,0.0000000,0.0000000,0.0000040
290.1396090,0.9995000,,-0.9752706,-0.2208987,0.0002697,0.0071182,0.0144972,0.0152381,0.0114300,,,,0.9425560,-4.2391233,-11.5921698,0.0000000,0.0000000,0.0000000,0.0199900,0.0002033,0.0000000,0.0000000,0.0000203,0.0000000,0.0000000,0.0000000,0.0002033,0.0000000,0.0000000,0.0000203,0.0000000,0.0000000,0.0000000,0.0002033,0.0000000,0.0000000,0.0000203,0.0000203,0.0000000,0.0000000,0.0000040,0.0000000,0.0000000,0.0000000,0.0000203,0.0000000,0.0000000,0.0000040,0.0000000,0.0000000,0.0000000,0.0000203,0.0000000,0.0000000,0.0000040
290.1558540,,1.0200200,-0.9752706,-0.2208987,0.0002697,0.0071182,,,,-0.1506237,-0.0719224,-0.0004371,0.9395544,-4.2405567,-11.5921783,-0.0002998,-0.0001432,-0.0000009,0.1020020,0.0001993,0.0000000,0.0000000,0.0000199,0.0000000,0.0000000,0.0000000,0.0001993,0.0000000,0.0000000,0.0000199,0.0000000,0.0000000,0.0000000,0.0001993,0.0000000,0.0000000,0.0000199,0.0000199,0.0000000,0.0000000,0.0000040,0.0000000,0.0000000,0.0000000,0.0000199,0.0000000,0.0000000,0.0000040,0.0000000,0.0000000,0.0000000,0.0000199,0.0000000,0.0000000,0.0000040
290.1693330,1.0998499,,-0.9752898,-0.2208253,0.0002329,0.0067526,0.0172660,0.0759098,-0.0038446,,,,0.9395544,-4.2405567,-11.5921783,0.0000000,0.0000000,0.0000000,0.0219970,0.0002002,0.0000000,0.0000000,0.0000200,0.0000000,0.0000000,0.0000000,0.0002002,0.0000000,0.0000000,0.0000200,0.0000000,0.0000000,0.0000000,0.0002002,0.0000000,0.0000000,0.0000200,0.0000200,0.0000000,0.0000000,0.0000040,0.0000000,0.0000000,0.0000000,0.0000200,0.0000000,0.0000000,0.0000040,0.0000000,0.0000000,0.0000000,0.0000200,0.0000000,0.0000000,0.0000040
290.1825840,1.0498999,,-0.9752672,-0.2209185,0.0004197,0.0069721,0.0037349,-0.0608534,0.0424655,,,,0.9395544,-4.2405567,-11.5921783,0.0000000,0.0000000,0.0000000,0.0209980,0.0002010,0.0000000,0.0000000,0.0000201,0.0000000,0.0000000,0.0000000,0.0002010,0.0000000,0.0000000,0.0000201,0.0000000,0.0000000,0.0000000,0.0002010,0.0000000,0.0000000,0.0000201,0.0000201,0.0000000,0.0000000,0.0000040,0.0000000,0.0000000,0.0000000,0.0000201,0.0000000,0.0000000,0.0000040,0.0000000,0.0000000,0.0000000,0.0000201,0.0000000,0.0000000,0.0000040
290.2026660,1.0001000,,-0.9752764,-0.2208912,0.0004740,0.0065302,-0.0170229,0.0596154,0.0270616,,,,0.9395544,-4.2405567,-11.5921783,0.0000000,0.0000000,0.0000000,0.0200020,0.0002018,0.0000000,0.0000000,0.0000202,0.0000000,0.0000000,0.0000000,0.0002018,0.0000000,0.0000000,0.0000202,0.0000000,0.0000000,0.0000000,0.0002018,0.0000000,0.0000000,0.0000202,0.0000202,0.0000000,0.0000000,0.0000040,0.0000000,0.0000000,0.0000000,0.0000202,0.0000000,0.0000000,0.0000040,0.0000000,0.0000000,0.0000000,0.0000202,0.0000000,0.0000000,0.0000040
290.2228130,1.0001000,,-0.9752669,-0.2209401,0.0002586,0.0062863,-0.0273790,0.0200879,-0.0106696,,,,0.9395544,-4.2405567,-11.5921783,0.0000000,0.0000000,0.0000000,0.0200020,0.0002026,0.0000000,0.0000000,0.0000202,0.0000000,0.0000000,0.0000000,0.0002026,0.0000000,0.0000000,0.0000202,0.0000000,0.0000000,0.0000000,0.0002026,0.0000000,0.0000000,0.0000202,0.0000202,0.0000000,0.0000000,0.0000040,0.0000000,0.0000000,0.0000000,0.0000202,0.0000000,0.0000000,0.0000040,0.0000000,0.0000000,0.0000000,0.0000202,0.0000000,0.0000000,0.0000040
290.2441460,0.9999000,,-0.9752774,-0.2208934,0.0003159,0.0063169,-0.0315728,0.0849264,0.0290509,,,,0.9395560,-4.2405748,-11.5921841,0.0001600,-0.0017975,-0.0006034,0.0199980,0.0002034,0.0000000,0.0000000,0.0000203,0.0000000,0.0000000,0.0000000,0.0002034,0.0000000,0.0000000,0.0000203,0.0000000,0.0000000,0.0000000,0.0002034,0.0000000,0.0000000,0.0000203,0.0000203,0.0000000,0.0000000,0.0000040,0.0000000,0.0000000,0.0000000,0.0000203,0.0000000,0.0000000,0.0000040,0.0000000,0.0000000,0.0000000,0.0000203,0.0000000,0.0000000,0.0000040
290.2598130,,0.9999800,-0.9752774,-0.2208934,0.0003159,0.0060833,,,,-0.3188962,-0.1522613,-0.0007684,0.9331986,-4.2436099,-11.5921993,-0.0004750,-0.0021006,-0.0006050,0.0999980,0.0001994,0.0000000,0.0000000,0.0000199,0.0000000,0.0000000,0.0000000,0.0001994,0.0000000,0.0000000,0.0000199,0.0000000,0.0000000,0.0000000,0.0001994,0.0000000,0.0000000,0.0000199,0.0000199,0.0000000,0.0000000,0.0000040,0.0000000,0.0000000,0.0000000,0.0000199,0.0000000,0.0000000,0.0000040,0.0000000,0.0000000,0.0000000,0.0000199,0.0000000,0.0000000,0.0000040
290.2733580,1.0009000,,-0.9752879,-0.2208537,0.0003327,0.0060833,-0.0084317,0.0108928,0.0130301,,,,0.9331986,-4.2436099,-11.5921993,0.0000000,0.0000000,0.0000000,0.0200180,0.0002002,0.0000000,0.0000000,0.0000200,0.0000000,0.0000000,0.0000000,0.0002002,0.0000000,0.0000000,0.0000200,0.0000000,0.0000000,0.0000000,0.0002002,0.0000000,0.0000000,0.0000200,0.0000200,0.0000000,0.0000000,0.0000040,0.0000000,0.0000000,0.0000000,0.0000200,0.0000000,0.0000000,0.0000040,0.0000000,0.0000000,0.0000000,0.0000200,0.0000000,0.0000000,0.0000040
290.2866910,1.1990499,,-0.9752877,-0.2208400,0.0004765,0.0065596,-0.0017439,0.0068349,0.0147700,,,,0.9331986,-4.2436099,-11.5921993,0.0000000,0.0000000,0.0000000,0.0239810,0.0002011,0.0000000,0.0000000,0.0000201,0.0000000,0.0000000,0.0000000,0.0002011,0.0000000,0.0000000,0.0000201,0.0000000,0.0000000,0.0000000,0.0002011,0.0000000,0.0000000,0.0000201,0.0000201,0.0000000,0.0000000,0.0000040,0.0000000,0.0000000,0.0000000,0.0000201,0.0000000,0.0000000,0.0000040,0.0000000,0.0000000,0.0000000,0.0000201,0.0000000,0.0000000,0.0000040
290.3081450,1.0000501,,-0.9752999,-0.2207955,0.0002638,0.0062510,-0.0372871,0.0548854,-0.0509951,,,,0.9331986,-4.2436099,-11.5921993,0.0000000,0.0000000,0.0000000,0.0200010,0.0002019,0.0000000,0.0000000,0.0000202,0.0000000,0.0000000,0.0000000,0.0002019,0.0000000,0.0000000,0.0000202,0.0000000,0.0000000,0.0000000,0.0002019,0.0000000,0.0000000,0.0000202,0.0000202,0.0000000,0.0000000,0.0000040,0.0000000,0.0000000,0.0000000,0.0000202,0.0000000,0.0000000,0.0000040,0.0000000,0.0000000,0.0000000,0.0000202,0.0000000,0.0000000,0.0000040
290.3267240,0.9999500,,-0.9752814,-0.2208682,0.0003967,0.0065681,-0.0308734,-0.1039050,0.0120543,,,,0.9331986,-4.2436099,-11.5921993,0.0000000,0.0000000,0.0000000,0.0199990,0.0002027,0.0000000,0.0000000,0.0000202,0.0000000,0.0000000,0.0000000,0.0002027,0.0000000,0.0000000,0.0000202,0.0000000,0.0000000,0.0000000,0.0002027,0.0000000,0.0000000,0.0000202,0.0000202,0.0000000,0.0000000,0.0000040,0.0000000,0.0000000,0.0000000,0.0000202,0.0000000,0.0000000,0.0000040,0.0000000,0.0000000,0.0000000,0.0000202,0.0000000,0.0000000,0.0000040
290.3469900,,1.0000000,-0.9753075,-0.2207753,0.0003508,0.0057166,,,,-0.1504429,-0.0804405,-0.0004636,0.9302093,-4.2452083,-11.5922089,0.0000000,0.0000000,0.0000000,0.1000000,0.0001987,0.0000000,0.0000000,0.0000198,0.0000000,0.0000000,0.0000000,0.0001987,0.0000000,0.0000000,0.0000198,0.0000000,0.0000000,0.0000000,0.0001987,0.0000000,0.0000000,0.0000198,0.0000198,0.0000000,0.0000000,0.0000040,0.0000000,0.0000000,0.0000000,0.0000198,0.0000000,0.0000000,0.0000040,0.0000000,0.0000000,0.0000000,0.0000198,0.0000000,0.0000000,0.0000040
290.3615740,0.9999500,,-0.9753075,-0.2207753,0.0003508,0.0057166,-0.0257288,0.0649222,0.0008773,,,,0.9302093,-4.2452083,-11.5922089,0.0000000,0.0000000,0.0000000,0.0199990,0.0001995,0.0000000,0.0000000,0.0000199,0.0000000,0.0000000,0.0000000,0.0001995,0.0000000,0.0000000,0.0000199,0.0000000,0.0000000,0.0000000,0.0001995,0.0000000,0.0000000,0.0000199,0.0000199,0.0000000,0.0000000,0.0000040,0.0000000,0.0000000,0.0000000,0.0000199,0.0000000,0.0000000,0.0000040,0.0000000,0.0000000,0.0000000,0.0000199,0.0000000,0.0000000,0.0000040
290.3746490,1.4001501,,-0.9752930,-0.2208232,0.0005879,0.0062914,-0.0658200,-0.0290166,0.0509300,,,,0.9302093,-4.2452083,-11.5922089,0.0000000,0.0000000,0.0000000,0.0280030,0.0002006,0.0000000,0.0000000,0.0000200,0.0000000,0.0000000,0.0000000,0.0002006,0.0000000,0.0000000,0.0000200,0.0000000,0.0000000,0.0000000,0.0002006,0.0000000,0.0000000,0.0000200,0.0000200,0.0000000,0.0000000,0.0000040,0.0000000,0.0000000,0.0000000,0.0000200,0.0000000,0.0000000,0.0000040,0.0000000,0.0000000,0.0000000,0.0000200,0.0000000,0.0000000,0.0000040
290.3949280,1.0003500,,-0.9753088,-0.2207627,0.0004888,0.0059796,-0.0298735,0.0587339,0.0432567,,,,0.9302093,-4.2452083,-11.5922089,0.0000000,0.0000000,0.0000000,0.0200070,0.0002014,0.0000000,0.0000000,0.0000201,0.0000000,0.0000000,0.0000000,0.0002014,0.0000000,0.0000000,0.0000201,0.0000000,0.0000000,0.0000000,0.0002014,0.0000000,0.0000000,0.0000201,0.0000201,0.0000000,0.0000000,0.0000040,0.0000000,0.0000000,0.0000000,0.0000201,0.0000000,0.0000000,0.0000040,0.0000000,0.0000000,0.0000000,0.0000201,0.0000000,0.0000000,0.0000040
290.4147620,0.9996000,,-0.9752934,-0.2208222,0.0005981,0.0062984,-0.0071624,0.0267043,0.0123129,,,,0.9302093,-4.2452083,-11.5922089,0.0000000,0.0000000,0.0000000,0.0199920,0.0002022,0.0000000,0.0000000,0.0000202,0.0000000,0.0000000,0.0000000,0.0002022,0.0000000,0.0000000,0.0000202,0.0000000,0.0000000,0.0000000,0.0002022,0.0000000,0.0000000,0.0000202,0.0000202,0.0000000,0.0000000,0.0000040,0.0000000,0.0000000,0.0000000,0.0000202,0.0000000,0.0000000,0.0000040,0.0000000,0.0000000,0.0000000,0.0000202,0.0000000,0.0000000,0.0000040
290.4346560,1.0000000,,-0.9753096,-0.2207517,0.0006907,0.0062634,0.0136307,0.1072471,-0.0099950,,,,0.9302093,-4.2452083,-11.5922089,0.0000000,0.0000000,0.0000000,0.0200000,0.0002030,0.0000000,0.0000000,0.0000203,0.0000000,0.0000000,0.0000000,0.0002030,0.0000000,0.0000000,0.0000203,0.0000000,0.0000000,0.0000000,0.0002030,0.0000000,0.0000000,0.0000203,0.0000203,0.0000000,0.0000000,0.0000040,0.0000000,0.0000000,0.0000000,0.0000203,0.0000000,0.0000000,0.0000040,0.0000000,0.0000000,0.0000000,0.0000203,0.0000000,0.0000000,0.0000040
290.4522910,,1.0000700,-0.9753096,-0.2207517,0.0006907,0.0062634,,,,-0.1293801,-0.0619012,-0.0002053,0.9276350,-4.2464399,-11.5922127,-0.0002572,-0.0001230,-0.0000004,0.1000070,0.0001990,0.0000000,0.0000000,0.0000199,0.0000000,0.0000000,0.0000000,0.0001990,0.0000000,0.0000000,0.0000199,0.0000000,0.0000000,0.0000000,0.0001990,0.0000000,0.0000000,0.0000199,0.0000199,0.0000000,0.0000000,0.0000040,0.0000000,0.0000000,0.0000000,0.0000199,0.0000000,0.0000000,0.0000040,0.0000000,0.0000000,0.0000000,0.0000199,0.0000000,0.0000000,0.0000040
290.4656030,1.0000000,,-0.9752808,-0.2208454,0.0010128,0.0072431,-0.0203071,-0.0835682,0.0081174,,,,0.9276350,-4.2464399,-11.5922127,0.0000000,0.0000000,0.0000000,0.0200000,0.0001998,0.0000000,0.0000000,0.0000200,0.0000000,0.0000000,0.0000000,0.0001998,0.0000000,0.0000000,0.0000200,0.0000000,0.0000000,0.0000000,0.0001998,0.0000000,0.0000000,0.0000200,0.0000200,0.0000000,0.0000000,0.0000040,0.0000000,0.0000000,0.0000000,0.0000200,0.0000000,0.0000000,0.0000040,0.0000000,0.0000000,0.0000000,0.0000200,0.0000000,0.0000000,0.0000040
290.4786940,1.1999000,,-0.9753054,-0.2207408,0.0009824,0.0071560,0.0094845,0.1076605,-0.0091707,,,,0.9276350,-4.2464399,-11.5922127,0.0000000,0.0000000,0.0000000,0.0239980,0.0002007,0.0000000,0.0000000,0.0000201,0.0000000,0.0000000,0.0000000,0.0002007,0.0000000,0.0000000,0.0000201,0.0000000,0.0000000,0.0000000,0.0002007,0.0000000,0.0000000,0.0000201,0.0000201,0.0000000,0.0000000,0.0000040,0.0000000,0.0000000,0.0000000,0.0000201,0.0000000,0.0000000,0.0000040,0.0000000,0.0000000,0.0000000,0.0000201,0.0000000,0.0000000,0.0000040
290.4998910,1.0504000,,-0.9752915,-0.2208072,0.0009273,0.0070329,0.0018736,-0.0571546,0.0275955,,,,0.9276350,-4.2464399,-11.5922127,0.0000000,0.0000000,0.0000000,0.0210080,0.0002016,0.0000000,0.0000000,0.0000201,0.0000000,0.0000000,0.0000000,0.0002016,0.0000000,0.0000000,0.0000201,0.0000000,0.0000000,0.0000000,0.0002016,0.0000000,0.0000000,0.0000201,0.0000201,0.0000000,0.0000000,0.0000040,0.0000000,0.0000000,0.0000000,0.0000201,0.0000000,0.0000000,0.0000040,0.0000000,0.0000000,0.0000000,0.0000201,0.0000000,0.0000000,0.0000040
290.5198100,0.9998000,,-0.9752812,-0.2208233,0.0011286,0.0078359,0.0291350,-0.0755209,0.0515632,,,,0.9276350,-4.2464399,-11.5922127,0.0000000,0.0000000,0.0000000,0.0199960,0.0002024,0.0000000,0.0000000,0.0000202,0.0000000,0.0000000,0.0000000,0.0002024,0.0000000,0.0000000,0.0000202,0.0000000,0.0000000,0.0000000,0.0002024,0.0000000,0.0000000,0.0000202,0.0000202,0.0000000,0.0000000,0.0000040,0.0000000,0.0000000,0.0000000,0.0000202,0.0000000,0.0000000,0.0000040,0.0000000,0.0000000,0.0000000,0.0000202,0.0000000,0.0000000,0.0000040
290.5395420,0.9999500,,-0.9752827,-0.2208160,0.0011778,0.0078850,0.0208541,0.0552113,-0.0006466,,,,0.9276350,-4.2464399,-11.5922127,0.0000000,0.0000000,0.0000000,0.0199990,0.0002032,0.0000000,0.0000000,0.0000203,0.0000000,0.0000000,0.0000000,0.0002032,0.0000000,0.0000000,0.0000203,0.0000000,0.0000000,0.0000000,0.0002032,0.0000000,0.0000000,0.0000203,0.0000203,0.0000000,0.0000000,0.0000040,0.0000000,0.0000000,0.0000000,0.0000203,0.0000000,0.0000000,0.0000040,0.0000000,0.0000000,0.0000000,0.0000203,0.0000000,0.0000000,0.0000040
290.5560390,,0.9999700,-0.9752827,-0.2208160,0.0011778,0.0078850,,,,-0.1359703,-0.0648993,-0.0001786,0.9249272,-4.2477322,-11.5922165,-0.0002705,-0.0001291,-0.0000004,0.0999970,0.0001991,0.0000000,0.0000000,0.0000199,0.0000000,0.0000000,0.0000000,0.0001991,0.0000000,0.0000000,0.0000199,0.0000000,0.0000000,0.0000000,0.0001991,0.0000000,0.0000000,0.0000199,0.0000199,0.0000000,0.0000000,0.0000040,0.0000000,0.0000000,0.0000000,0.0000199,0.0000000,0.0000000,0.0000040,0.0000000,0.0000000,0.0000000,0.0000199,0.0000000,0.0000000,0.0000040
290.5705700,1.0000000,,-0.9752733,-0.2208186,0.0014338,0.0088336,-0.0022911,0.0497309,-0.0084715,,,,0.9249272,-4.2477322,-11.5922165,0.0000000,0.0000000,0.0000000,0.0200000,0.0001999,0.0000000,0.0000000,0.0000200,0.0000000,0.0000000,0.0000000,0.0001999,0.0000000,0.0000000,0.0000200,0.0000000,0.0000000,0.0000000,0.0001999,0.0000000,0.0000000,0.0000200,0.0000200,0.0000000,0.0000000,0.0000040,0.0000000,0.0000000,0.0000000,0.0000200,0.0000000,0.0000000,0.0000040,0.0000000,0.0000000,0.0000000,0.0000200,0.0000000,0.0000000,0.0000040
290.5836970,1.1999000,,-0.9752663,-0.2208452,0.0015585,0.0089430,-0.0283520,0.0682462,0.0188737,,,,0.9249272,-4.2477322,-11.5922165,0.0000000,0.0000000,0.0000000,0.0239980,0.0002009,0.0000000,0.0000000,0.0000201,0.0000000,0.0000000,0.0000000,0.0002009,0.0000000,0.0000000,0.0000201,0.0000000,0.0000000,0.0000000,0.0002009,0.0000000,0.0000000,0.0000201,0.0000201,0.0000000,0.0000000,0.0000040,0.0000000,0.0000000,0.0000000,0.0000201,0.0000000,0.0000000,0.0000040,0.0000000,0.0000000,0.0000000,0.0000201,0.0000000,0.0000000,0.0000040
290.6050040,1.0504500,,-0.9752529,-0.2208656,0.0016896,0.0098073,-0.0064550,-0.0627321,0.0857384,,,,0.9249198,-4.2477198,-11.5922356,-0.0007038,0.0011638,-0.0017749,0.0210090,0.0002017,0.0000000,0.0000000,0.0000202,0.0000000,0.0000000,0.0000000,0.0002017,0.0000000,0.0000000,0.0000202,0.0000000,0.0000000,0.0000000,0.0002017,0.0000000,0.0000000,0.0000202,0.0000202,0.0000000,0.0000000,0.0000040,0.0000000,0.0000000,0.0000000,0.0000202,0.0000000,0.0000000,0.0000040,0.0000000,0.0000000,0.0000000,0.0000202,0.0000000,0.0000000,0.0000040
290.6248470,0.9997000,,-0.9752788,-0.2207722,0.0015753,0.0093629,0.0184476,0.1397689,0.0300976,,,,0.9249211,-4.2477202,-11.5922775,0.0008280,-0.0011884,-0.0024291,0.0199940,0.0002025,0.0000000,0.0000000,0.0000202,0.0000000,0.0000000,0.0000000,0.0002025,0.0000000,0.0000000,0.0000202,0.0000000,0.0000000,0.0000000,0.0002025,0.0000000,0.0000000,0.0000202,0.0000202,0.0000000,0.0000000,0.0000040,0.0000000,0.0000000,0.0000000,0.0000202,0.0000000,0.0000000,0.0000040,0.0000000,0.0000000,0.0000000,0.0000202,0.0000000,0.0000000,0.0000040
290.6466350,,0.9999600,-0.9752545,-0.2208800,0.0015942,0.0093718,,,,-0.1641895,-0.0783474,-0.0001931,0.9216617,-4.2492757,-11.5922804,0.0000000,0.0000000,0.0000000,0.0999960,0.0001985,0.0000000,0.0000000,0.0000198,0.0000000,0.0000000,0.0000000,0.0001985,0.0000000,0.0000000,0.0000198,0.0000000,0.0000000,0.0000000,0.0001985,0.0000000,0.0000000,0.0000198,0.0000198,0.0000000,0.0000000,0.0000040,0.0000000,0.0000000,0.0000000,0.0000198,0.0000000,0.0000000,0.0000040,0.0000000,0.0000000,0.0000000,0.0000198,0.0000000,0.0000000,0.0000040
