t,predict_cpu,update_cpu,quat_x,quat_y,quat_z,quat_w,accel_x,accel_y,accel_z,of_x,of_y,of_z,x_x,x_y,x_z,x_vx,x_vy,x_vz,dt,P_0,P_1,P_2,P_3,P_4,P_5,P_6,P_7,P_8,P_9,P_10,P_11,P_12,P_13,P_14,P_15,P_16,P_17,P_18,P_19,P_20,P_21,P_22,P_23,P_24,P_25,P_26,P_27,P_28,P_29,P_30,P_31,P_32,P_33,P_34,P_35
30.4526550,,0.9999400,-0.9726826,-0.2321183,0.0001228,0.0031153,,,,0.0000000,0.0000000,0.0000000,1.6470766,-6.8448272,-16.9743748,0.0000000,0.0000000,0.0000000,0.0999940,0.4015458,0.0000000,0.0000000,0.0207467,0.0000000,0.0000000,0.0000000,0.4015458,0.0000000,0.0000000,0.0207467,0.0000000,0.0000000,0.0000000,0.4015458,0.0000000,0.0000000,0.0207467,0.0207467,0.0000000,0.0000000,0.0013195,0.0000000,0.0000000,0.0000000,0.0207467,0.0000000,0.0000000,0.0013195,0.0000000,0.0000000,0.0000000,0.0207467,0.0000000,0.0000000,0.0013195
30.4664630,1.0502501,,-0.9726826,-0.2321183,0.0001228,0.0031153,0.0032576,-0.0075610,-0.0000739,,,,1.6470766,-6.8448272,-16.9743748,0.0000000,0.0000000,0.0000000,0.0210050,0.4024174,0.0000000,0.0000000,0.0207745,0.0000000,0.0000000,0.0000000,0.4024174,0.0000000,0.0000000,0.0207745,0.0000000,0.0000000,0.0000000,0.4024174,0.0000000,0.0000000,0.0207745,0.0207745,0.0000000,0.0000000,0.0013195,0.0000000,0.0000000,0.0000000,0.0207745,0.0000000,0.0000000,0.0013195,0.0000000,0.0000000,0.0000000,0.0207745,0.0000000,0.0000000,0.0013195
30.4799770,1.3997000,,-0.9726826,-0.2321183,0.0001205,0.0031149,0.0032233,0.0022086,0.0050824,,,,1.6470766,-6.8448272,-16.9743748,0.0000000,0.0000000,0.0000000,0.0279940,0.4035805,0.0000000,0.0000000,0.0208114,0.0000000,0.0000000,0.0000000,0.4035805,0.0000000,0.0000000,0.0208114,0.0000000,0.0000000,0.0000000,0.4035805,0.0000000,0.0000000,0.0208114,0.0208114,0.0000000,0.0000000,0.0013195,0.0000000,0.0000000,0.0000000,0.0208114,0.0000000,0.0000000,0.0013195,0.0000000,0.0000000,0.0000000,0.0208114,0.0000000,0.0000000,0.0013195
30.4998700,1.0004500,,-0.9726826,-0.2321184,0.0000984,0.0031180,0.0038928,0.0048961,-0.0018610,,,,1.6470766,-6.8448272,-16.9743748,0.0000000,0.0000000,0.0000000,0.0200090,0.4044133,0.0000000,0.0000000,0.0208378,0.0000000,0.0000000,0.0000000,0.4044133,0.0000000,0.0000000,0.0208378,0.0000000,0.0000000,0.0000000,0.4044133,0.0000000,0.0000000,0.0208378,0.0208378,0.0000000,0.0000000,0.0013195,0.0000000,0.0000000,0.0000000,0.0208378,0.0000000,0.0000000,0.0013195,0.0000000,0.0000000,0.0000000,0.0208378,0.0000000,0.0000000,0.0013195
30.5200000,1.0002000,,-0.9726826,-0.2321185,0.0000665,0.0031001,0.0041971,0.0064306,0.0015033,,,,1.6470766,-6.8448272,-16.9743748,0.0000000,0.0000000,0.0000000,0.0200040,0.4052470,0.0000000,0.0000000,0.0208642,0.0000000,0.0000000,0.0000000,0.4052470,0.0000000,0.0000000,0.0208642,0.0000000,0.0000000,0.0000000,0.4052470,0.0000000,0.0000000,0.0208642,0.0208642,0.0000000,0.0000000,0.0013195,0.0000000,0.0000000,0.0000000,0.0208642,0.0000000,0.0000000,0.0013195,0.0000000,0.0000000,0.0000000,0.0208642,0.0000000,0.0000000,0.0013195
30.5411810,0.9993500,,-0.9726826,-0.2321186,0.0000271,0.0030896,0.0006413,0.0074343,0.0031854,,,,1.6470766,-6.8448272,-16.9743748,0.0000000,0.0000000,0.0000000,0.0199870,0.4060811,0.0000000,0.0000000,0.0208906,0.0000000,0.0000000,0.0000000,0.4060811,0.0000000,0.0000000,0.0208906,0.0000000,0.0000000,0.0000000,0.4060811,0.0000000,0.0000000,0.0208906,0.0208906,0.0000000,0.0000000,0.0013195,0.0000000,0.0000000,0.0000000,0.0208906,0.0000000,0.0000000,0.0013195,0.0000000,0.0000000,0.0000000,0.0208906,0.0000000,0.0000000,0.0013195
30.5565580,,1.0000700,-0.9726826,-0.2321186,0.0000271,0.0030896,,,,0.0000000,0.0000000,0.0000000,1.6470766,-6.8448272,-16.9743748,0.0000000,0.0000000,0.0000000,0.1000070,0.4002505,0.0000000,0.0000000,0.0205906,0.0000000,0.0000000,0.0000000,0.4002505,0.0000000,0.0000000,0.0205906,0.0000000,0.0000000,0.0000000,0.4002505,0.0000000,0.0000000,0.0205906,0.0205906,0.0000000,0.0000000,0.0013040,0.0000000,0.0000000,0.0000000,0.0205906,0.0000000,0.0000000,0.0013040,0.0000000,0.0000000,0.0000000,0.0205906,0.0000000,0.0000000,0.0013040
30.5705020,1.0010000,,-0.9726826,-0.2321187,0.0000062,0.0030869,0.0000842,0.0028093,-0.0042743,,,,1.6470766,-6.8448272,-16.9743748,0.0000000,0.0000000,0.0000000,0.0200200,0.4010749,0.0000000,0.0000000,0.0206167,0.0000000,0.0000000,0.0000000,0.4010749,0.0000000,0.0000000,0.0206167,0.0000000,0.0000000,0.0000000,0.4010749,0.0000000,0.0000000,0.0206167,0.0206167,0.0000000,0.0000000,0.0013041,0.0000000,0.0000000,0.0000000,0.0206167,0.0000000,0.0000000,0.0013041,0.0000000,0.0000000,0.0000000,0.0206167,0.0000000,0.0000000,0.0013041
30.5835810,1.1990000,,-0.9726826,-0.2321187,0.0000208,0.0030750,0.0018121,0.0087899,0.0010291,,,,1.6470766,-6.8448272,-16.9743748,0.0000000,0.0000000,0.0000000,0.0239800,0.4020637,0.0000000,0.0000000,0.0206480,0.0000000,0.0000000,0.0000000,0.4020637,0.0000000,0.0000000,0.0206480,0.0000000,0.0000000,0.0000000,0.4020637,0.0000000,0.0000000,0.0206480,0.0206480,0.0000000,0.0000000,0.0013041,0.0000000,0.0000000,0.0000000,0.0206480,0.0000000,0.0000000,0.0013041,0.0000000,0.0000000,0.0000000,0.0206480,0.0000000,0.0000000,0.0013041
30.6045890,1.0501500,,-0.9726827,-0.2321187,0.0000273,0.0030452,0.0046368,0.0110020,0.0024600,,,,1.6470766,-6.8448272,-16.9743748,0.0000000,0.0000000,0.0000000,0.0210030,0.4029311,0.0000000,0.0000000,0.0206754,0.0000000,0.0000000,0.0000000,0.4029311,0.0000000,0.0000000,0.0206754,0.0000000,0.0000000,0.0000000,0.4029311,0.0000000,0.0000000,0.0206754,0.0206754,0.0000000,0.0000000,0.0013041,0.0000000,0.0000000,0.0000000,0.0206754,0.0000000,0.0000000,0.0013041,0.0000000,0.0000000,0.0000000,0.0206754,0.0000000,0.0000000,0.0013041
30.6258390,1.0499500,,-0.9726828,-0.2321186,0.0000427,0.0030159,-0.0012445,0.0091555,0.0053728,,,,1.6470766,-6.8448272,-16.9743748,0.0000000,0.0000000,0.0000000,0.0209990,0.4037994,0.0000000,0.0000000,0.0207028,0.0000000,0.0000000,0.0000000,0.4037994,0.0000000,0.0000000,0.0207028,0.0000000,0.0000000,0.0000000,0.4037994,0.0000000,0.0000000,0.0207028,0.0207028,0.0000000,0.0000000,0.0013041,0.0000000,0.0000000,0.0000000,0.0207028,0.0000000,0.0000000,0.0013041,0.0000000,0.0000000,0.0000000,0.0207028,0.0000000,0.0000000,0.0013041
30.6457460,1.0005001,,-0.9726830,-0.2321186,0.0000626,0.0029748,-0.0017056,0.0076982,0.0058526,,,,1.6470766,-6.8448272,-16.9743748,0.0000000,0.0000000,0.0000000,0.0200100,0.4046279,0.0000000,0.0000000,0.0207289,0.0000000,0.0000000,0.0000000,0.4046279,0.0000000,0.0000000,0.0207289,0.0000000,0.0000000,0.0000000,0.4046279,0.0000000,0.0000000,0.0207289,0.0207289,0.0000000,0.0000000,0.0013041,0.0000000,0.0000000,0.0000000,0.0207289,0.0000000,0.0000000,0.0013041,0.0000000,0.0000000,0.0000000,0.0207289,0.0000000,0.0000000,0.0013041
30.6610050,,1.0199400,-0.9726830,-0.2321186,0.0000626,0.0029748,,,,0.0000000,0.0000000,0.0000000,1.6470766,-6.8448272,-16.9743748,0.0000000,0.0000000,0.0000000,0.1019940,0.3988387,0.0000000,0.0000000,0.0204323,0.0000000,0.0000000,0.0000000,0.3988387,0.0000000,0.0000000,0.0204323,0.0000000,0.0000000,0.0000000,0.3988387,0.0000000,0.0000000,0.0204323,0.0204323,0.0000000,0.0000000,0.0012889,0.0000000,0.0000000,0.0000000,0.0204323,0.0000000,0.0000000,0.0012889,0.0000000,0.0000000,0.0000000,0.0204323,0.0000000,0.0000000,0.0012889
30.6755250,1.1000000,,-0.9726830,-0.2321185,0.0000952,0.0029637,0.0037172,-0.0003242,0.0019421,,,,1.6470766,-6.8448272,-16.9743748,0.0000000,0.0000000,0.0000000,0.0220000,0.3997377,0.0000000,0.0000000,0.0204606,0.0000000,0.0000000,0.0000000,0.3997377,0.0000000,0.0000000,0.0204606,0.0000000,0.0000000,0.0000000,0.3997377,0.0000000,0.0000000,0.0204606,0.0204606,0.0000000,0.0000000,0.0012889,0.0000000,0.0000000,0.0000000,0.0204606,0.0000000,0.0000000,0.0012889,0.0000000,0.0000000,0.0000000,0.0204606,0.0000000,0.0000000,0.0012889
30.6886940,1.0494500,,-0.9726830,-0.2321185,0.0001045,0.0029552,0.0029954,0.0020046,-0.0024545,,,,1.6470766,-6.8448272,-16.9743748,0.0000000,0.0000000,0.0000000,0.0209890,0.4005966,0.0000000,0.0000000,0.0204877,0.0000000,0.0000000,0.0000000,0.4005966,0.0000000,0.0000000,0.0204877,0.0000000,0.0000000,0.0000000,0.4005966,0.0000000,0.0000000,0.0204877,0.0204877,0.0000000,0.0000000,0.0012889,0.0000000,0.0000000,0.0000000,0.0204877,0.0000000,0.0000000,0.0012889,0.0000000,0.0000000,0.0000000,0.0204877,0.0000000,0.0000000,0.0012889
30.7096410,1.0504000,,-0.9726831,-0.2321184,0.0001335,0.0029471,0.0014672,-0.0004930,-0.0002583,,,,1.6470766,-6.8448272,-16.9743748,0.0000000,0.0000000,0.0000000,0.0210080,0.4014574,0.0000000,0.0000000,0.0205148,0.0000000,0.0000000,0.0000000,0.4014574,0.0000000,0.0000000,0.0205148,0.0000000,0.0000000,0.0000000,0.4014574,0.0000000,0.0000000,0.0205148,0.0205148,0.0000000,0.0000000,0.0012889,0.0000000,0.0000000,0.0000000,0.0205148,0.0000000,0.0000000,0.0012889,0.0000000,0.0000000,0.0000000,0.0205148,0.0000000,0.0000000,0.0012889
30.7311930,1.0000501,,-0.9726831,-0.2321184,0.0001287,0.0029420,0.0048153,-0.0051675,-0.0016016,,,,1.6470766,-6.8448272,-16.9743748,0.0000000,0.0000000,0.0000000,0.0200010,0.4022781,0.0000000,0.0000000,0.0205405,0.0000000,0.0000000,0.0000000,0.4022781,0.0000000,0.0000000,0.0205405,0.0000000,0.0000000,0.0000000,0.4022781,0.0000000,0.0000000,0.0205405,0.0205405,0.0000000,0.0000000,0.0012889,0.0000000,0.0000000,0.0000000,0.0205405,0.0000000,0.0000000,0.0012889,0.0000000,0.0000000,0.0000000,0.0205405,0.0000000,0.0000000,0.0012889
30.7497140,0.9999000,,-0.9726831,-0.2321185,0.0001249,0.0029429,0.0050169,-0.0038426,-0.0012967,,,,1.6470766,-6.8448272,-16.9743748,0.0000000,0.0000000,0.0000000,0.0199980,0.4030996,0.0000000,0.0000000,0.0205663,0.0000000,0.0000000,0.0000000,0.4030996,0.0000000,0.0000000,0.0205663,0.0000000,0.0000000,0.0000000,0.4030996,0.0000000,0.0000000,0.0205663,0.0205663,0.0000000,0.0000000,0.0012889,0.0000000,0.0000000,0.0000000,0.0205663,0.0000000,0.0000000,0.0012889,0.0000000,0.0000000,0.0000000,0.0205663,0.0000000,0.0000000,0.0012889
30.7655400,,1.0000401,-0.9726831,-0.2321185,0.0001249,0.0029429,,,,0.0000000,0.0000000,0.0000000,1.6470766,-6.8448272,-16.9743748,0.0000000,0.0000000,0.0000000,0.1000040,0.3973537,0.0000000,0.0000000,0.0202732,0.0000000,0.0000000,0.0000000,0.3973537,0.0000000,0.0000000,0.0202732,0.0000000,0.0000000,0.0000000,0.3973537,0.0000000,0.0000000,0.0202732,0.0202732,0.0000000,0.0000000,0.0012739,0.0000000,0.0000000,0.0000000,0.0202732,0.0000000,0.0000000,0.0012739,0.0000000,0.0000000,0.0000000,0.0202732,0.0000000,0.0000000,0.0012739
30.7795500,0.9999000,,-0.9726830,-0.2321185,0.0000898,0.0029567,0.0082229,-0.0036532,-0.0018767,,,,1.6470766,-6.8448272,-16.9743748,0.0000000,0.0000000,0.0000000,0.0199980,0.3981646,0.0000000,0.0000000,0.0202986,0.0000000,0.0000000,0.0000000,0.3981646,0.0000000,0.0000000,0.0202986,0.0000000,0.0000000,0.0000000,0.3981646,0.0000000,0.0000000,0.0202986,0.0202986,0.0000000,0.0000000,0.0012739,0.0000000,0.0000000,0.0000000,0.0202986,0.0000000,0.0000000,0.0012739,0.0000000,0.0000000,0.0000000,0.0202986,0.0000000,0.0000000,0.0012739
30.7925460,1.1497000,,-0.9726830,-0.2321186,0.0000758,0.0029635,0.0100776,0.0001037,0.0027161,,,,1.6470766,-6.8448272,-16.9743748,0.0000000,0.0000000,0.0000000,0.0229940,0.3990981,0.0000000,0.0000000,0.0203279,0.0000000,0.0000000,0.0000000,0.3990981,0.0000000,0.0000000,0.0203279,0.0000000,0.0000000,0.0000000,0.3990981,0.0000000,0.0000000,0.0203279,0.0203279,0.0000000,0.0000000,0.0012739,0.0000000,0.0000000,0.0000000,0.0203279,0.0000000,0.0000000,0.0012739,0.0000000,0.0000000,0.0000000,0.0203279,0.0000000,0.0000000,0.0012739
30.8126180,1.0001000,,-0.9726829,-0.2321186,0.0000737,0.0029877,0.0070987,-0.0038315,0.0028153,,,,1.6470766,-6.8448272,-16.9743748,0.0000000,0.0000000,0.0000000,0.0200020,0.3999113,0.0000000,0.0000000,0.0203534,0.0000000,0.0000000,0.0000000,0.3999113,0.0000000,0.0000000,0.0203534,0.0000000,0.0000000,0.0000000,0.3999113,0.0000000,0.0000000,0.0203534,0.0203534,0.0000000,0.0000000,0.0012739,0.0000000,0.0000000,0.0000000,0.0203534,0.0000000,0.0000000,0.0012739,0.0000000,0.0000000,0.0000000,0.0203534,0.0000000,0.0000000,0.0012739
30.8338620,1.0506500,,-0.9726829,-0.2321185,0.0001049,0.0029991,0.0029848,-0.0006645,0.0011559,,,,1.6470766,-6.8448272,-16.9743748,0.0000000,0.0000000,0.0000000,0.0210130,0.4007666,0.0000000,0.0000000,0.0203802,0.0000000,0.0000000,0.0000000,0.4007666,0.0000000,0.0000000,0.0203802,0.0000000,0.0000000,0.0000000,0.4007666,0.0000000,0.0000000,0.0203802,0.0203802,0.0000000,0.0000000,0.0012740,0.0000000,0.0000000,0.0000000,0.0203802,0.0000000,0.0000000,0.0012740,0.0000000,0.0000000,0.0000000,0.0203802,0.0000000,0.0000000,0.0012740
30.8546410,,0.9999600,-0.9726828,-0.2321185,0.0001086,0.0030360,,,,0.0000000,0.0000000,0.0000000,1.6470766,-6.8448272,-16.9743748,0.0000000,0.0000000,0.0000000,0.0999960,0.3950866,0.0000000,0.0000000,0.0200913,0.0000000,0.0000000,0.0000000,0.3950866,0.0000000,0.0000000,0.0200913,0.0000000,0.0000000,0.0000000,0.3950866,0.0000000,0.0000000,0.0200913,0.0200913,0.0000000,0.0000000,0.0012593,0.0000000,0.0000000,0.0000000,0.0200913,0.0000000,0.0000000,0.0012593,0.0000000,0.0000000,0.0000000,0.0200913,0.0000000,0.0000000,0.0012593
30.8684370,0.9996500,,-0.9726828,-0.2321185,0.0001086,0.0030360,0.0047959,-0.0021938,0.0010586,,,,1.6470766,-6.8448272,-16.9743748,0.0000000,0.0000000,0.0000000,0.0199930,0.3958900,0.0000000,0.0000000,0.0201165,0.0000000,0.0000000,0.0000000,0.3958900,0.0000000,0.0000000,0.0201165,0.0000000,0.0000000,0.0000000,0.3958900,0.0000000,0.0000000,0.0201165,0.0201165,0.0000000,0.0000000,0.0012593,0.0000000,0.0000000,0.0000000,0.0201165,0.0000000,0.0000000,0.0012593,0.0000000,0.0000000,0.0000000,0.0201165,0.0000000,0.0000000,0.0012593
30.8819950,1.3996000,,-0.9726827,-0.2321185,0.0000814,0.0030468,0.0046715,0.0016497,0.0061369,,,,1.6470766,-6.8448272,-16.9743748,0.0000000,0.0000000,0.0000000,0.0279920,0.3970162,0.0000000,0.0000000,0.0201518,0.0000000,0.0000000,0.0000000,0.3970162,0.0000000,0.0000000,0.0201518,0.0000000,0.0000000,0.0000000,0.3970162,0.0000000,0.0000000,0.0201518,0.0201518,0.0000000,0.0000000,0.0012593,0.0000000,0.0000000,0.0000000,0.0201518,0.0000000,0.0000000,0.0012593,0.0000000,0.0000000,0.0000000,0.0201518,0.0000000,0.0000000,0.0012593
30.9017100,1.0000501,,-0.9726828,-0.2321186,0.0000656,0.0030206,0.0043804,0.0030221,0.0094085,,,,1.6470766,-6.8448272,-16.9743748,0.0000000,0.0000000,0.0000000,0.0200010,0.3978224,0.0000000,0.0000000,0.0201769,0.0000000,0.0000000,0.0000000,0.3978224,0.0000000,0.0000000,0.0201769,0.0000000,0.0000000,0.0000000,0.3978224,0.0000000,0.0000000,0.0201769,0.0201769,0.0000000,0.0000000,0.0012593,0.0000000,0.0000000,0.0000000,0.0201769,0.0000000,0.0000000,0.0012593,0.0000000,0.0000000,0.0000000,0.0201769,0.0000000,0.0000000,0.0012593
30.9216350,1.0006001,,-0.9726828,-0.2321186,0.0000698,0.0030078,0.0037695,0.0037159,0.0073822,,,,1.6470766,-6.8448272,-16.9743748,0.0000000,0.0000000,0.0000000,0.0200120,0.3986299,0.0000000,0.0000000,0.0202021,0.0000000,0.0000000,0.0000000,0.3986299,0.0000000,0.0000000,0.0202021,0.0000000,0.0000000,0.0000000,0.3986299,0.0000000,0.0000000,0.0202021,0.0202021,0.0000000,0.0000000,0.0012593,0.0000000,0.0000000,0.0000000,0.0202021,0.0000000,0.0000000,0.0012593,0.0000000,0.0000000,0.0000000,0.0202021,0.0000000,0.0000000,0.0012593
30.9426200,1.0495000,,-0.9726828,-0.2321186,0.0000755,0.0030081,-0.0009305,-0.0030020,0.0022186,,,,1.6470766,-6.8448272,-16.9743748,0.0000000,0.0000000,0.0000000,0.0209900,0.3994780,0.0000000,0.0000000,0.0202286,0.0000000,0.0000000,0.0000000,0.3994780,0.0000000,0.0000000,0.0202286,0.0000000,0.0000000,0.0000000,0.3994780,0.0000000,0.0000000,0.0202286,0.0202286,0.0000000,0.0000000,0.0012593,0.0000000,0.0000000,0.0000000,0.0202286,0.0000000,0.0000000,0.0012593,0.0000000,0.0000000,0.0000000,0.0202286,0.0000000,0.0000000,0.0012593
30.9585940,,1.0200000,-0.9726828,-0.2321186,0.0000755,0.0030081,,,,0.0000000,0.0000000,0.0000000,1.6470766,-6.8448272,-16.9743748,0.0000000,0.0000000,0.0000000,0.1020000,0.3938342,0.0000000,0.0000000,0.0199428,0.0000000,0.0000000,0.0000000,0.3938342,0.0000000,0.0000000,0.0199428,0.0000000,0.0000000,0.0000000,0.3938342,0.0000000,0.0000000,0.0199428,0.0199428,0.0000000,0.0000000,0.0012448,0.0000000,0.0000000,0.0000000,0.0199428,0.0000000,0.0000000,0.0012448,0.0000000,0.0000000,0.0000000,0.0199428,0.0000000,0.0000000,0.0012448
30.9723370,1.1000000,,-0.9726828,-0.2321185,0.0000943,0.0030102,-0.0061797,-0.0061091,-0.0008515,,,,1.6470766,-6.8448272,-16.9743748,0.0000000,0.0000000,0.0000000,0.0220000,0.3947116,0.0000000,0.0000000,0.0199702,0.0000000,0.0000000,0.0000000,0.3947116,0.0000000,0.0000000,0.0199702,0.0000000,0.0000000,0.0000000,0.3947116,0.0000000,0.0000000,0.0199702,0.0199702,0.0000000,0.0000000,0.0012448,0.0000000,0.0000000,0.0000000,0.0199702,0.0000000,0.0000000,0.0012448,0.0000000,0.0000000,0.0000000,0.0199702,0.0000000,0.0000000,0.0012448
30.9858130,1.0499500,,-0.9726828,-0.2321185,0.0001214,0.0030090,-0.0094985,0.0062533,-0.0001892,,,,1.6470766,-6.8448272,-16.9743748,0.0000000,0.0000000,0.0000000,0.0209990,0.3955503,0.0000000,0.0000000,0.0199963,0.0000000,0.0000000,0.0000000,0.3955503,0.0000000,0.0000000,0.0199963,0.0000000,0.0000000,0.0000000,0.3955503,0.0000000,0.0000000,0.0199963,0.0199963,0.0000000,0.0000000,0.0012448,0.0000000,0.0000000,0.0000000,0.0199963,0.0000000,0.0000000,0.0012448,0.0000000,0.0000000,0.0000000,0.0199963,0.0000000,0.0000000,0.0012448
31.0058340,1.0002000,,-0.9726830,-0.2321184,0.0001349,0.0029783,0.0008202,0.0057893,-0.0001022,,,,1.6470766,-6.8448272,-16.9743748,0.0000000,0.0000000,0.0000000,0.0200040,0.3963504,0.0000000,0.0000000,0.0200212,0.0000000,0.0000000,0.0000000,0.3963504,0.0000000,0.0000000,0.0200212,0.0000000,0.0000000,0.0000000,0.3963504,0.0000000,0.0000000,0.0200212,0.0200212,0.0000000,0.0000000,0.0012448,0.0000000,0.0000000,0.0000000,0.0200212,0.0000000,0.0000000,0.0012448,0.0000000,0.0000000,0.0000000,0.0200212,0.0000000,0.0000000,0.0012448
31.0256650,1.0005001,,-0.9726830,-0.2321184,0.0001379,0.0029682,0.0015698,0.0023911,-0.0020119,,,,1.6470766,-6.8448272,-16.9743748,0.0000000,0.0000000,0.0000000,0.0200100,0.3971516,0.0000000,0.0000000,0.0200461,0.0000000,0.0000000,0.0000000,0.3971516,0.0000000,0.0000000,0.0200461,0.0000000,0.0000000,0.0000000,0.3971516,0.0000000,0.0000000,0.0200461,0.0200461,0.0000000,0.0000000,0.0012448,0.0000000,0.0000000,0.0000000,0.0200461,0.0000000,0.0000000,0.0012448,0.0000000,0.0000000,0.0000000,0.0200461,0.0000000,0.0000000,0.0012448
31.0468720,1.0493001,,-0.9726830,-0.2321185,0.0001077,0.0029634,0.0021277,0.0053154,0.0004513,,,,1.6470766,-6.8448272,-16.9743748,0.0000000,0.0000000,0.0000000,0.0209860,0.3979930,0.0000000,0.0000000,0.0200723,0.0000000,0.0000000,0.0000000,0.3979930,0.0000000,0.0000000,0.0200723,0.0000000,0.0000000,0.0000000,0.3979930,0.0000000,0.0000000,0.0200723,0.0200723,0.0000000,0.0000000,0.0012448,0.0000000,0.0000000,0.0000000,0.0200723,0.0000000,0.0000000,0.0012448,0.0000000,0.0000000,0.0000000,0.0200723,0.0000000,0.0000000,0.0012448
31.0627760,,1.0200100,-0.9726830,-0.2321185,0.0001077,0.0029634,,,,0.0000000,0.0000000,0.0000000,1.6470766,-6.8448272,-16.9743748,0.0000000,0.0000000,0.0000000,0.1020010,0.3923908,0.0000000,0.0000000,0.0197897,0.0000000,0.0000000,0.0000000,0.3923908,0.0000000,0.0000000,0.0197897,0.0000000,0.0000000,0.0000000,0.3923908,0.0000000,0.0000000,0.0197897,0.0197897,0.0000000,0.0000000,0.0012306,0.0000000,0.0000000,0.0000000,0.0197897,0.0000000,0.0000000,0.0012306,0.0000000,0.0000000,0.0000000,0.0197897,0.0000000,0.0000000,0.0012306
31.0764090,1.1003500,,-0.9726829,-0.2321186,0.0000692,0.0029815,0.0079684,0.0007046,0.0036360,,,,1.6470766,-6.8448272,-16.9743748,0.0000000,0.0000000,0.0000000,0.0220070,0.3932618,0.0000000,0.0000000,0.0198168,0.0000000,0.0000000,0.0000000,0.3932618,0.0000000,0.0000000,0.0198168,0.0000000,0.0000000,0.0000000,0.3932618,0.0000000,0.0000000,0.0198168,0.0198168,0.0000000,0.0000000,0.0012306,0.0000000,0.0000000,0.0000000,0.0198168,0.0000000,0.0000000,0.0012306,0.0000000,0.0000000,0.0000000,0.0198168,0.0000000,0.0000000,0.0012306
31.0898440,1.0496000,,-0.9726828,-0.2321187,0.0000548,0.0030001,0.0023515,-0.0010897,0.0071815,,,,1.6470766,-6.8448272,-16.9743748,0.0000000,0.0000000,0.0000000,0.0209920,0.3940938,0.0000000,0.0000000,0.0198426,0.0000000,0.0000000,0.0000000,0.3940938,0.0000000,0.0000000,0.0198426,0.0000000,0.0000000,0.0000000,0.3940938,0.0000000,0.0000000,0.0198426,0.0198426,0.0000000,0.0000000,0.0012306,0.0000000,0.0000000,0.0000000,0.0198426,0.0000000,0.0000000,0.0012306,0.0000000,0.0000000,0.0000000,0.0198426,0.0000000,0.0000000,0.0012306
31.1095900,1.0007499,,-0.9726828,-0.2321187,0.0000530,0.0030081,0.0002831,0.0043609,-0.0066708,,,,1.6470766,-6.8448272,-16.9743748,0.0000000,0.0000000,0.0000000,0.0200150,0.3948881,0.0000000,0.0000000,0.0198673,0.0000000,0.0000000,0.0000000,0.3948881,0.0000000,0.0000000,0.0198673,0.0000000,0.0000000,0.0000000,0.3948881,0.0000000,0.0000000,0.0198673,0.0198673,0.0000000,0.0000000,0.0012306,0.0000000,0.0000000,0.0000000,0.0198673,0.0000000,0.0000000,0.0012306,0.0000000,0.0000000,0.0000000,0.0198673,0.0000000,0.0000000,0.0012306
31.1296740,0.9999500,,-0.9726828,-0.2321187,0.0000506,0.0030090,0.0029110,0.0043930,0.0042253,,,,1.6470766,-6.8448272,-16.9743748,0.0000000,0.0000000,0.0000000,0.0199990,0.3956827,0.0000000,0.0000000,0.0198919,0.0000000,0.0000000,0.0000000,0.3956827,0.0000000,0.0000000,0.0198919,0.0000000,0.0000000,0.0000000,0.3956827,0.0000000,0.0000000,0.0198919,0.0198919,0.0000000,0.0000000,0.0012306,0.0000000,0.0000000,0.0000000,0.0198919,0.0000000,0.0000000,0.0012306,0.0000000,0.0000000,0.0000000,0.0198919,0.0000000,0.0000000,0.0012306
31.1505690,1.0494001,,-0.9726828,-0.2321187,0.0000489,0.0030043,0.0034926,-0.0024422,0.0016168,,,,1.6470766,-6.8448272,-16.9743748,0.0000000,0.0000000,0.0000000,0.0209880,0.3965177,0.0000000,0.0000000,0.0199177,0.0000000,0.0000000,0.0000000,0.3965177,0.0000000,0.0000000,0.0199177,0.0000000,0.0000000,0.0000000,0.3965177,0.0000000,0.0000000,0.0199177,0.0199177,0.0000000,0.0000000,0.0012306,0.0000000,0.0000000,0.0000000,0.0199177,0.0000000,0.0000000,0.0012306,0.0000000,0.0000000,0.0000000,0.0199177,0.0000000,0.0000000,0.0012306
31.1666230,,1.0000499,-0.9726828,-0.2321187,0.0000489,0.0030043,,,,0.0000000,0.0000000,0.0000000,1.6470766,-6.8448272,-16.9743748,0.0000000,0.0000000,0.0000000,0.1000050,0.3909566,0.0000000,0.0000000,0.0196384,0.0000000,0.0000000,0.0000000,0.3909566,0.0000000,0.0000000,0.0196384,0.0000000,0.0000000,0.0000000,0.3909566,0.0000000,0.0000000,0.0196384,0.0196384,0.0000000,0.0000000,0.0012166,0.0000000,0.0000000,0.0000000,0.0196384,0.0000000,0.0000000,0.0012166,0.0000000,0.0000000,0.0000000,0.0196384,0.0000000,0.0000000,0.0012166
31.1804670,1.0999000,,-0.9726828,-0.2321187,0.0000485,0.0030123,0.0032950,-0.0051045,-0.0009082,,,,1.6470766,-6.8448272,-16.9743748,0.0000000,0.0000000,0.0000000,0.0219980,0.3918206,0.0000000,0.0000000,0.0196651,0.0000000,0.0000000,0.0000000,0.3918206,0.0000000,0.0000000,0.0196651,0.0000000,0.0000000,0.0000000,0.3918206,0.0000000,0.0000000,0.0196651,0.0196651,0.0000000,0.0000000,0.0012166,0.0000000,0.0000000,0.0000000,0.0196651,0.0000000,0.0000000,0.0012166,0.0000000,0.0000000,0.0000000,0.0196651,0.0000000,0.0000000,0.0012166
31.1939320,1.0499500,,-0.9726828,-0.2321186,0.0000577,0.0030260,-0.0014271,-0.0049479,-0.0048563,,,,1.6470766,-6.8448272,-16.9743748,0.0000000,0.0000000,0.0000000,0.0209990,0.3926465,0.0000000,0.0000000,0.0196907,0.0000000,0.0000000,0.0000000,0.3926465,0.0000000,0.0000000,0.0196907,0.0000000,0.0000000,0.0000000,0.3926465,0.0000000,0.0000000,0.0196907,0.0196907,0.0000000,0.0000000,0.0012166,0.0000000,0.0000000,0.0000000,0.0196907,0.0000000,0.0000000,0.0012166,0.0000000,0.0000000,0.0000000,0.0196907,0.0000000,0.0000000,0.0012166
31.2135490,1.0004500,,-0.9726828,-0.2321187,0.0000426,0.0030211,0.0030096,0.0002269,0.0002498,,,,1.6470766,-6.8448272,-16.9743748,0.0000000,0.0000000,0.0000000,0.0200090,0.3934345,0.0000000,0.0000000,0.0197150,0.0000000,0.0000000,0.0000000,0.3934345,0.0000000,0.0000000,0.0197150,0.0000000,0.0000000,0.0000000,0.3934345,0.0000000,0.0000000,0.0197150,0.0197150,0.0000000,0.0000000,0.0012166,0.0000000,0.0000000,0.0000000,0.0197150,0.0000000,0.0000000,0.0012166,0.0000000,0.0000000,0.0000000,0.0197150,0.0000000,0.0000000,0.0012166
31.2346510,1.0496501,,-0.9726828,-0.2321188,0.0000060,0.0030083,0.0029773,-0.0006419,0.0003614,,,,1.6470766,-6.8448272,-16.9743748,0.0000000,0.0000000,0.0000000,0.0209930,0.3942623,0.0000000,0.0000000,0.0197405,0.0000000,0.0000000,0.0000000,0.3942623,0.0000000,0.0000000,0.0197405,0.0000000,0.0000000,0.0000000,0.3942623,0.0000000,0.0000000,0.0197405,0.0197405,0.0000000,0.0000000,0.0012166,0.0000000,0.0000000,0.0000000,0.0197405,0.0000000,0.0000000,0.0012166,0.0000000,0.0000000,0.0000000,0.0197405,0.0000000,0.0000000,0.0012166
31.2560100,1.0500000,,-0.9726828,-0.2321188,0.0000268,0.0029961,0.0006036,-0.0013128,0.0048117,,,,1.6470766,-6.8448272,-16.9743748,0.0000000,0.0000000,0.0000000,0.0210000,0.3950914,0.0000000,0.0000000,0.0197661,0.0000000,0.0000000,0.0000000,0.3950914,0.0000000,0.0000000,0.0197661,0.0000000,0.0000000,0.0000000,0.3950914,0.0000000,0.0000000,0.0197661,0.0197661,0.0000000,0.0000000,0.0012166,0.0000000,0.0000000,0.0000000,0.0197661,0.0000000,0.0000000,0.0012166,0.0000000,0.0000000,0.0000000,0.0197661,0.0000000,0.0000000,0.0012166
31.2726420,,0.9999600,-0.9726828,-0.2321188,0.0000268,0.0029961,,,,0.0000000,0.0000000,0.0000000,1.6470766,-6.8448272,-16.9743748,0.0000000,0.0000000,0.0000000,0.0999960,0.3895700,0.0000000,0.0000000,0.0194899,0.0000000,0.0000000,0.0000000,0.3895700,0.0000000,0.0000000,0.0194899,0.0000000,0.0000000,0.0000000,0.3895700,0.0000000,0.0000000,0.0194899,0.0194899,0.0000000,0.0000000,0.0012028,0.0000000,0.0000000,0.0000000,0.0194899,0.0000000,0.0000000,0.0012028,0.0000000,0.0000000,0.0000000,0.0194899,0.0000000,0.0000000,0.0012028
31.2856930,1.0000501,,-0.9726828,-0.2321188,0.0000365,0.0029864,0.0013699,0.0020063,0.0038631,,,,1.6470766,-6.8448272,-16.9743748,0.0000000,0.0000000,0.0000000,0.0200010,0.3903496,0.0000000,0.0000000,0.0195139,0.0000000,0.0000000,0.0000000,0.3903496,0.0000000,0.0000000,0.0195139,0.0000000,0.0000000,0.0000000,0.3903496,0.0000000,0.0000000,0.0195139,0.0195139,0.0000000,0.0000000,0.0012028,0.0000000,0.0000000,0.0000000,0.0195139,0.0000000,0.0000000,0.0012028,0.0000000,0.0000000,0.0000000,0.0195139,0.0000000,0.0000000,0.0012028
31.2989310,1.1499500,,-0.9726830,-0.2321187,0.0000652,0.0029666,0.0015623,0.0073126,0.0053419,,,,1.6470766,-6.8448272,-16.9743748,0.0000000,0.0000000,0.0000000,0.0229990,0.3912472,0.0000000,0.0000000,0.0195416,0.0000000,0.0000000,0.0000000,0.3912472,0.0000000,0.0000000,0.0195416,0.0000000,0.0000000,0.0000000,0.3912472,0.0000000,0.0000000,0.0195416,0.0195416,0.0000000,0.0000000,0.0012028,0.0000000,0.0000000,0.0000000,0.0195416,0.0000000,0.0000000,0.0012028,0.0000000,0.0000000,0.0000000,0.0195416,0.0000000,0.0000000,0.0012028
31.3185920,1.0004500,,-0.9726830,-0.2321186,0.0000848,0.0029784,-0.0010270,0.0024433,0.0090110,,,,1.6470766,-6.8448272,-16.9743748,0.0000000,0.0000000,0.0000000,0.0200090,0.3920292,0.0000000,0.0000000,0.0195656,0.0000000,0.0000000,0.0000000,0.3920292,0.0000000,0.0000000,0.0195656,0.0000000,0.0000000,0.0000000,0.3920292,0.0000000,0.0000000,0.0195656,0.0195657,0.0000000,0.0000000,0.0012028,0.0000000,0.0000000,0.0000000,0.0195657,0.0000000,0.0000000,0.0012028,0.0000000,0.0000000,0.0000000,0.0195657,0.0000000,0.0000000,0.0012028
31.3396190,1.0495499,,-0.9726829,-0.2321186,0.0001008,0.0029919,0.0018364,0.0053949,0.0027889,,,,1.6470766,-6.8448272,-16.9743748,0.0000000,0.0000000,0.0000000,0.0209910,0.3928506,0.0000000,0.0000000,0.0195909,0.0000000,0.0000000,0.0000000,0.3928506,0.0000000,0.0000000,0.0195909,0.0000000,0.0000000,0.0000000,0.3928506,0.0000000,0.0000000,0.0195909,0.0195909,0.0000000,0.0000000,0.0012028,0.0000000,0.0000000,0.0000000,0.0195909,0.0000000,0.0000000,0.0012028,0.0000000,0.0000000,0.0000000,0.0195909,0.0000000,0.0000000,0.0012028
31.3597750,,1.0099900,-0.9726830,-0.2321185,0.0001167,0.0029829,,,,0.0000000,0.0000000,0.0000000,1.6470766,-6.8448272,-16.9743748,0.0000000,0.0000000,0.0000000,0.1009990,0.3873913,0.0000000,0.0000000,0.0193186,0.0000000,0.0000000,0.0000000,0.3873913,0.0000000,0.0000000,0.0193186,0.0000000,0.0000000,0.0000000,0.3873913,0.0000000,0.0000000,0.0193186,0.0193186,0.0000000,0.0000000,0.0011892,0.0000000,0.0000000,0.0000000,0.0193186,0.0000000,0.0000000,0.0011892,0.0000000,0.0000000,0.0000000,0.0193186,0.0000000,0.0000000,0.0011892
31.3735600,1.0999500,,-0.9726830,-0.2321185,0.0001167,0.0029829,0.0006054,0.0080685,-0.0010546,,,,1.6470766,-6.8448272,-16.9743748,0.0000000,0.0000000,0.0000000,0.0219990,0.3882413,0.0000000,0.0000000,0.0193448,0.0000000,0.0000000,0.0000000,0.3882413,0.0000000,0.0000000,0.0193448,0.0000000,0.0000000,0.0000000,0.3882413,0.0000000,0.0000000,0.0193448,0.0193448,0.0000000,0.0000000,0.0011892,0.0000000,0.0000000,0.0000000,0.0193448,0.0000000,0.0000000,0.0011892,0.0000000,0.0000000,0.0000000,0.0193448,0.0000000,0.0000000,0.0011892
31.3865850,1.2505001,,-0.9726830,-0.2321186,0.0000943,0.0029741,0.0072531,0.0054762,-0.0019998,,,,1.6470766,-6.8448272,-16.9743748,0.0000000,0.0000000,0.0000000,0.0250100,0.3892089,0.0000000,0.0000000,0.0193745,0.0000000,0.0000000,0.0000000,0.3892089,0.0000000,0.0000000,0.0193745,0.0000000,0.0000000,0.0000000,0.3892089,0.0000000,0.0000000,0.0193745,0.0193746,0.0000000,0.0000000,0.0011892,0.0000000,0.0000000,0.0000000,0.0193746,0.0000000,0.0000000,0.0011892,0.0000000,0.0000000,0.0000000,0.0193746,0.0000000,0.0000000,0.0011892
31.4076670,1.0496000,,-0.9726830,-0.2321187,0.0000694,0.0029641,0.0093333,-0.0002373,-0.0010075,,,,1.6470766,-6.8448272,-16.9743748,0.0000000,0.0000000,0.0000000,0.0209920,0.3900223,0.0000000,0.0000000,0.0193995,0.0000000,0.0000000,0.0000000,0.3900223,0.0000000,0.0000000,0.0193995,0.0000000,0.0000000,0.0000000,0.3900223,0.0000000,0.0000000,0.0193995,0.0193995,0.0000000,0.0000000,0.0011892,0.0000000,0.0000000,0.0000000,0.0193995,0.0000000,0.0000000,0.0011892,0.0000000,0.0000000,0.0000000,0.0193995,0.0000000,0.0000000,0.0011892
31.4278500,0.9999500,,-0.9726830,-0.2321188,0.0000392,0.0029393,0.0093740,0.0014988,-0.0053942,,,,1.6470766,-6.8448272,-16.9743748,0.0000000,0.0000000,0.0000000,0.0199990,0.3907982,0.0000000,0.0000000,0.0194233,0.0000000,0.0000000,0.0000000,0.3907982,0.0000000,0.0000000,0.0194233,0.0000000,0.0000000,0.0000000,0.3907982,0.0000000,0.0000000,0.0194233,0.0194233,0.0000000,0.0000000,0.0011892,0.0000000,0.0000000,0.0000000,0.0194233,0.0000000,0.0000000,0.0011892,0.0000000,0.0000000,0.0000000,0.0194233,0.0000000,0.0000000,0.0011892
31.4479540,0.9999000,,-0.9726830,-0.2321189,0.0000039,0.0029287,0.0059382,-0.0032484,-0.0044137,,,,1.6470766,-6.8448272,-16.9743748,0.0000000,0.0000000,0.0000000,0.0199980,0.3915751,0.0000000,0.0000000,0.0194471,0.0000000,0.0000000,0.0000000,0.3915751,0.0000000,0.0000000,0.0194471,0.0000000,0.0000000,0.0000000,0.3915751,0.0000000,0.0000000,0.0194471,0.0194471,0.0000000,0.0000000,0.0011892,0.0000000,0.0000000,0.0000000,0.0194471,0.0000000,0.0000000,0.0011892,0.0000000,0.0000000,0.0000000,0.0194471,0.0000000,0.0000000,0.0011892
31.4625760,,0.9999900,-0.9726830,-0.2321189,0.0000039,0.0029287,,,,0.0000000,0.0000000,0.0000000,1.6470766,-6.8448272,-16.9743748,0.0000000,0.0000000,0.0000000,0.0999990,0.3861509,0.0000000,0.0000000,0.0191777,0.0000000,0.0000000,0.0000000,0.3861509,0.0000000,0.0000000,0.0191777,0.0000000,0.0000000,0.0000000,0.3861509,0.0000000,0.0000000,0.0191777,0.0191777,0.0000000,0.0000000,0.0011759,0.0000000,0.0000000,0.0000000,0.0191777,0.0000000,0.0000000,0.0011759,0.0000000,0.0000000,0.0000000,0.0191777,0.0000000,0.0000000,0.0011759
31.4764990,1.0003999,,-0.9726830,-0.2321189,-0.0000107,0.0029418,-0.0033557,0.0002679,0.0051097,,,,1.6470766,-6.8448272,-16.9743748,0.0000000,0.0000000,0.0000000,0.0200080,0.3869183,0.0000000,0.0000000,0.0192012,0.0000000,0.0000000,0.0000000,0.3869183,0.0000000,0.0000000,0.0192012,0.0000000,0.0000000,0.0000000,0.3869183,0.0000000,0.0000000,0.0192012,0.0192012,0.0000000,0.0000000,0.0011759,0.0000000,0.0000000,0.0000000,0.0192012,0.0000000,0.0000000,0.0011759,0.0000000,0.0000000,0.0000000,0.0192012,0.0000000,0.0000000,0.0011759
31.4896700,1.0996000,,-0.9726830,-0.2321189,-0.0000163,0.0029556,-0.0048288,-0.0062595,-0.0003825,,,,1.6470766,-6.8448272,-16.9743748,0.0000000,0.0000000,0.0000000,0.0219920,0.3877628,0.0000000,0.0000000,0.0192271,0.0000000,0.0000000,0.0000000,0.3877628,0.0000000,0.0000000,0.0192271,0.0000000,0.0000000,0.0000000,0.3877628,0.0000000,0.0000000,0.0192271,0.0192271,0.0000000,0.0000000,0.0011759,0.0000000,0.0000000,0.0000000,0.0192271,0.0000000,0.0000000,0.0011759,0.0000000,0.0000000,0.0000000,0.0192271,0.0000000,0.0000000,0.0011759
31.5107300,1.0501001,,-0.9726830,-0.2321190,-0.0000377,0.0029392,-0.0009495,-0.0017641,0.0024867,,,,1.6470766,-6.8448272,-16.9743748,0.0000000,0.0000000,0.0000000,0.0210020,0.3885705,0.0000000,0.0000000,0.0192518,0.0000000,0.0000000,0.0000000,0.3885705,0.0000000,0.0000000,0.0192518,0.0000000,0.0000000,0.0000000,0.3885705,0.0000000,0.0000000,0.0192518,0.0192518,0.0000000,0.0000000,0.0011759,0.0000000,0.0000000,0.0000000,0.0192518,0.0000000,0.0000000,0.0011759,0.0000000,0.0000000,0.0000000,0.0192518,0.0000000,0.0000000,0.0011759
31.5318630,1.0500000,,-0.9726830,-0.2321191,-0.0000450,0.0029283,0.0024625,0.0036574,0.0080717,,,,1.6470766,-6.8448272,-16.9743748,0.0000000,0.0000000,0.0000000,0.0210000,0.3893790,0.0000000,0.0000000,0.0192765,0.0000000,0.0000000,0.0000000,0.3893790,0.0000000,0.0000000,0.0192765,0.0000000,0.0000000,0.0000000,0.3893790,0.0000000,0.0000000,0.0192765,0.0192765,0.0000000,0.0000000,0.0011759,0.0000000,0.0000000,0.0000000,0.0192765,0.0000000,0.0000000,0.0011759,0.0000000,0.0000000,0.0000000,0.0192765,0.0000000,0.0000000,0.0011759
31.5517740,1.0007000,,-0.9726830,-0.2321190,-0.0000294,0.0029284,0.0003005,-0.0006966,0.0113524,,,,1.6470766,-6.8448272,-16.9743748,0.0000000,0.0000000,0.0000000,0.0200140,0.3901506,0.0000000,0.0000000,0.0193000,0.0000000,0.0000000,0.0000000,0.3901506,0.0000000,0.0000000,0.0193000,0.0000000,0.0000000,0.0000000,0.3901506,0.0000000,0.0000000,0.0193000,0.0193000,0.0000000,0.0000000,0.0011759,0.0000000,0.0000000,0.0000000,0.0193000,0.0000000,0.0000000,0.0011759,0.0000000,0.0000000,0.0000000,0.0193000,0.0000000,0.0000000,0.0011759
31.5668680,,1.0000000,-0.9726830,-0.2321190,-0.0000294,0.0029284,,,,0.0000000,0.0000000,0.0000000,1.6470766,-6.8448272,-16.9743748,0.0000000,0.0000000,0.0000000,0.1000000,0.3847655,0.0000000,0.0000000,0.0190336,0.0000000,0.0000000,0.0000000,0.3847655,0.0000000,0.0000000,0.0190336,0.0000000,0.0000000,0.0000000,0.3847655,0.0000000,0.0000000,0.0190336,0.0190336,0.0000000,0.0000000,0.0011627,0.0000000,0.0000000,0.0000000,0.0190336,0.0000000,0.0000000,0.0011627,0.0000000,0.0000000,0.0000000,0.0190336,0.0000000,0.0000000,0.0011627
31.5807280,1.0997500,,-0.9726829,-0.2321190,-0.0000398,0.0029565,-0.0003457,-0.0040486,0.0076217,,,,1.6470766,-6.8448272,-16.9743748,0.0000000,0.0000000,0.0000000,0.0219950,0.3856028,0.0000000,0.0000000,0.0190592,0.0000000,0.0000000,0.0000000,0.3856028,0.0000000,0.0000000,0.0190592,0.0000000,0.0000000,0.0000000,0.3856028,0.0000000,0.0000000,0.0190592,0.0190592,0.0000000,0.0000000,0.0011627,0.0000000,0.0000000,0.0000000,0.0190592,0.0000000,0.0000000,0.0011627,0.0000000,0.0000000,0.0000000,0.0190592,0.0000000,0.0000000,0.0011627
31.5951020,0.9994500,,-0.9726828,-0.2321190,-0.0000339,0.0029733,-0.0011341,-0.0018030,0.0033149,,,,1.6470766,-6.8448272,-16.9743748,0.0000000,0.0000000,0.0000000,0.0199890,0.3863648,0.0000000,0.0000000,0.0190824,0.0000000,0.0000000,0.0000000,0.3863648,0.0000000,0.0000000,0.0190824,0.0000000,0.0000000,0.0000000,0.3863648,0.0000000,0.0000000,0.0190824,0.0190824,0.0000000,0.0000000,0.0011627,0.0000000,0.0000000,0.0000000,0.0190824,0.0000000,0.0000000,0.0011627,0.0000000,0.0000000,0.0000000,0.0190824,0.0000000,0.0000000,0.0011627
31.6137640,1.0000501,,-0.9726828,-0.2321190,-0.0000282,0.0029838,-0.0017649,-0.0060437,-0.0005474,,,,1.6470766,-6.8448272,-16.9743748,0.0000000,0.0000000,0.0000000,0.0200010,0.3871281,0.0000000,0.0000000,0.0191057,0.0000000,0.0000000,0.0000000,0.3871281,0.0000000,0.0000000,0.0191057,0.0000000,0.0000000,0.0000000,0.3871281,0.0000000,0.0000000,0.0191057,0.0191057,0.0000000,0.0000000,0.0011627,0.0000000,0.0000000,0.0000000,0.0191057,0.0000000,0.0000000,0.0011627,0.0000000,0.0000000,0.0000000,0.0191057,0.0000000,0.0000000,0.0011627
31.6335490,1.0001000,,-0.9726827,-0.2321190,-0.0000313,0.0030086,0.0030238,-0.0071570,-0.0002813,,,,1.6470766,-6.8448272,-16.9743748,0.0000000,0.0000000,0.0000000,0.0200020,0.3878924,0.0000000,0.0000000,0.0191289,0.0000000,0.0000000,0.0000000,0.3878924,0.0000000,0.0000000,0.0191289,0.0000000,0.0000000,0.0000000,0.3878924,0.0000000,0.0000000,0.0191289,0.0191289,0.0000000,0.0000000,0.0011627,0.0000000,0.0000000,0.0000000,0.0191289,0.0000000,0.0000000,0.0011627,0.0000000,0.0000000,0.0000000,0.0191289,0.0000000,0.0000000,0.0011627
31.6547250,1.0498999,,-0.9726827,-0.2321190,-0.0000446,0.0030271,0.0012372,-0.0040439,0.0054669,,,,1.6470766,-6.8448272,-16.9743748,0.0000000,0.0000000,0.0000000,0.0209980,0.3886958,0.0000000,0.0000000,0.0191534,0.0000000,0.0000000,0.0000000,0.3886958,0.0000000,0.0000000,0.0191534,0.0000000,0.0000000,0.0000000,0.3886958,0.0000000,0.0000000,0.0191534,0.0191534,0.0000000,0.0000000,0.0011627,0.0000000,0.0000000,0.0000000,0.0191534,0.0000000,0.0000000,0.0011627,0.0000000,0.0000000,0.0000000,0.0191534,0.0000000,0.0000000,0.0011627
31.6704960,,1.0000199,-0.9726827,-0.2321190,-0.0000446,0.0030271,,,,0.0000000,0.0000000,0.0000000,1.6470766,-6.8448272,-16.9743748,0.0000000,0.0000000,0.0000000,0.1000020,0.3833505,0.0000000,0.0000000,0.0188900,0.0000000,0.0000000,0.0000000,0.3833505,0.0000000,0.0000000,0.0188900,0.0000000,0.0000000,0.0000000,0.3833505,0.0000000,0.0000000,0.0188900,0.0188900,0.0000000,0.0000000,0.0011497,0.0000000,0.0000000,0.0000000,0.0188900,0.0000000,0.0000000,0.0011497,0.0000000,0.0000000,0.0000000,0.0188900,0.0000000,0.0000000,0.0011497
31.6838450,1.1000000,,-0.9726827,-0.2321189,-0.0000206,0.0030243,-0.0091089,-0.0064012,0.0000403,,,,1.6470766,-6.8448272,-16.9743748,0.0000000,0.0000000,0.0000000,0.0220000,0.3841816,0.0000000,0.0000000,0.0189153,0.0000000,0.0000000,0.0000000,0.3841816,0.0000000,0.0000000,0.0189153,0.0000000,0.0000000,0.0000000,0.3841816,0.0000000,0.0000000,0.0189153,0.0189153,0.0000000,0.0000000,0.0011497,0.0000000,0.0000000,0.0000000,0.0189153,0.0000000,0.0000000,0.0011497,0.0000000,0.0000000,0.0000000,0.0189153,0.0000000,0.0000000,0.0011497
31.6967770,1.0004500,,-0.9726827,-0.2321189,-0.0000053,0.0030264,-0.0025555,-0.0051308,0.0024539,,,,1.6470766,-6.8448272,-16.9743748,0.0000000,0.0000000,0.0000000,0.0200090,0.3849386,0.0000000,0.0000000,0.0189383,0.0000000,0.0000000,0.0000000,0.3849386,0.0000000,0.0000000,0.0189383,0.0000000,0.0000000,0.0000000,0.3849386,0.0000000,0.0000000,0.0189383,0.0189383,0.0000000,0.0000000,0.0011497,0.0000000,0.0000000,0.0000000,0.0189383,0.0000000,0.0000000,0.0011497,0.0000000,0.0000000,0.0000000,0.0189383,0.0000000,0.0000000,0.0011497
31.7168660,0.9999000,,-0.9726827,-0.2321188,0.0000046,0.0030382,-0.0017203,-0.0083790,0.0043932,,,,1.6470766,-6.8448272,-16.9743748,0.0000000,0.0000000,0.0000000,0.0199980,0.3856961,0.0000000,0.0000000,0.0189613,0.0000000,0.0000000,0.0000000,0.3856961,0.0000000,0.0000000,0.0189613,0.0000000,0.0000000,0.0000000,0.3856961,0.0000000,0.0000000,0.0189613,0.0189613,0.0000000,0.0000000,0.0011497,0.0000000,0.0000000,0.0000000,0.0189613,0.0000000,0.0000000,0.0011497,0.0000000,0.0000000,0.0000000,0.0189613,0.0000000,0.0000000,0.0011497
31.7368350,0.9999500,,-0.9726827,-0.2321188,0.0000283,0.0030432,-0.0015163,-0.0053568,-0.0024497,,,,1.6470766,-6.8448272,-16.9743748,0.0000000,0.0000000,0.0000000,0.0199990,0.3864545,0.0000000,0.0000000,0.0189842,0.0000000,0.0000000,0.0000000,0.3864545,0.0000000,0.0000000,0.0189842,0.0000000,0.0000000,0.0000000,0.3864545,0.0000000,0.0000000,0.0189842,0.0189843,0.0000000,0.0000000,0.0011498,0.0000000,0.0000000,0.0000000,0.0189843,0.0000000,0.0000000,0.0011498,0.0000000,0.0000000,0.0000000,0.0189843,0.0000000,0.0000000,0.0011498
31.7565960,0.9997500,,-0.9726827,-0.2321188,0.0000393,0.0030476,-0.0016584,-0.0018926,-0.0029415,,,,1.6470766,-6.8448272,-16.9743748,0.0000000,0.0000000,0.0000000,0.0199950,0.3872136,0.0000000,0.0000000,0.0190072,0.0000000,0.0000000,0.0000000,0.3872136,0.0000000,0.0000000,0.0190072,0.0000000,0.0000000,0.0000000,0.3872136,0.0000000,0.0000000,0.0190072,0.0190072,0.0000000,0.0000000,0.0011498,0.0000000,0.0000000,0.0000000,0.0190072,0.0000000,0.0000000,0.0011498,0.0000000,0.0000000,0.0000000,0.0190072,0.0000000,0.0000000,0.0011498
31.7731600,,1.0199800,-0.9726827,-0.2321188,0.0000393,0.0030476,,,,0.0000000,0.0000000,0.0000000,1.6470766,-6.8448272,-16.9743748,0.0000000,0.0000000,0.0000000,0.1019980,0.3819088,0.0000000,0.0000000,0.0187468,0.0000000,0.0000000,0.0000000,0.3819088,0.0000000,0.0000000,0.0187468,0.0000000,0.0000000,0.0000000,0.3819088,0.0000000,0.0000000,0.0187468,0.0187468,0.0000000,0.0000000,0.0011370,0.0000000,0.0000000,0.0000000,0.0187468,0.0000000,0.0000000,0.0011370,0.0000000,0.0000000,0.0000000,0.0187468,0.0000000,0.0000000,0.0011370
31.7865210,1.1001501,,-0.9726827,-0.2321187,0.0000584,0.0030481,0.0002542,-0.0008853,-0.0053846,,,,1.6470766,-6.8448272,-16.9743748,0.0000000,0.0000000,0.0000000,0.0220030,0.3827338,0.0000000,0.0000000,0.0187718,0.0000000,0.0000000,0.0000000,0.3827338,0.0000000,0.0000000,0.0187718,0.0000000,0.0000000,0.0000000,0.3827338,0.0000000,0.0000000,0.0187718,0.0187719,0.0000000,0.0000000,0.0011370,0.0000000,0.0000000,0.0000000,0.0187719,0.0000000,0.0000000,0.0011370,0.0000000,0.0000000,0.0000000,0.0187719,0.0000000,0.0000000,0.0011370
31.7998330,1.0498501,,-0.9726827,-0.2321187,0.0000733,0.0030457,-0.0026882,-0.0040513,0.0021829,,,,1.6470766,-6.8448272,-16.9743748,0.0000000,0.0000000,0.0000000,0.0209970,0.3835221,0.0000000,0.0000000,0.0187957,0.0000000,0.0000000,0.0000000,0.3835221,0.0000000,0.0000000,0.0187957,0.0000000,0.0000000,0.0000000,0.3835221,0.0000000,0.0000000,0.0187957,0.0187957,0.0000000,0.0000000,0.0011370,0.0000000,0.0000000,0.0000000,0.0187957,0.0000000,0.0000000,0.0011370,0.0000000,0.0000000,0.0000000,0.0187957,0.0000000,0.0000000,0.0011370
31.8200140,1.0002000,,-0.9726827,-0.2321187,0.0000750,0.0030369,-0.0053877,-0.0032082,-0.0047756,,,,1.6470766,-6.8448272,-16.9743748,0.0000000,0.0000000,0.0000000,0.0200040,0.3842740,0.0000000,0.0000000,0.0188185,0.0000000,0.0000000,0.0000000,0.3842740,0.0000000,0.0000000,0.0188185,0.0000000,0.0000000,0.0000000,0.3842740,0.0000000,0.0000000,0.0188185,0.0188185,0.0000000,0.0000000,0.0011370,0.0000000,0.0000000,0.0000000,0.0188185,0.0000000,0.0000000,0.0011370,0.0000000,0.0000000,0.0000000,0.0188185,0.0000000,0.0000000,0.0011370
31.8397880,0.9999000,,-0.9726827,-0.2321186,0.0000986,0.0030381,-0.0040061,-0.0027638,0.0000460,,,,1.6470766,-6.8448272,-16.9743748,0.0000000,0.0000000,0.0000000,0.0199980,0.3850267,0.0000000,0.0000000,0.0188412,0.0000000,0.0000000,0.0000000,0.3850267,0.0000000,0.0000000,0.0188412,0.0000000,0.0000000,0.0000000,0.3850267,0.0000000,0.0000000,0.0188412,0.0188412,0.0000000,0.0000000,0.0011370,0.0000000,0.0000000,0.0000000,0.0188412,0.0000000,0.0000000,0.0011370,0.0000000,0.0000000,0.0000000,0.0188412,0.0000000,0.0000000,0.0011370
31.8618010,,1.0000800,-0.9726827,-0.2321185,0.0001084,0.0030638,,,,0.0000000,0.0000000,0.0000000,1.6470766,-6.8448272,-16.9743748,0.0000000,0.0000000,0.0000000,0.1000080,0.3797812,0.0000000,0.0000000,0.0185845,0.0000000,0.0000000,0.0000000,0.3797812,0.0000000,0.0000000,0.0185845,0.0000000,0.0000000,0.0000000,0.3797812,0.0000000,0.0000000,0.0185845,0.0185845,0.0000000,0.0000000,0.0011244,0.0000000,0.0000000,0.0000000,0.0185845,0.0000000,0.0000000,0.0011244,0.0000000,0.0000000,0.0000000,0.0185845,0.0000000,0.0000000,0.0011244
31.8747270,1.0499500,,-0.9726827,-0.2321185,0.0001084,0.0030638,-0.0040630,-0.0095759,0.0007478,,,,1.6470766,-6.8448272,-16.9743748,0.0000000,0.0000000,0.0000000,0.0209990,0.3805617,0.0000000,0.0000000,0.0186081,0.0000000,0.0000000,0.0000000,0.3805617,0.0000000,0.0000000,0.0186081,0.0000000,0.0000000,0.0000000,0.3805617,0.0000000,0.0000000,0.0186081,0.0186081,0.0000000,0.0000000,0.0011244,0.0000000,0.0000000,0.0000000,0.0186081,0.0000000,0.0000000,0.0011244,0.0000000,0.0000000,0.0000000,0.0186081,0.0000000,0.0000000,0.0011244
31.8877670,1.3498501,,-0.9726826,-0.2321186,0.0000815,0.0030870,-0.0039159,-0.0032086,-0.0035400,,,,1.6470766,-6.8448272,-16.9743748,0.0000000,0.0000000,0.0000000,0.0269970,0.3815664,0.0000000,0.0000000,0.0186385,0.0000000,0.0000000,0.0000000,0.3815664,0.0000000,0.0000000,0.0186385,0.0000000,0.0000000,0.0000000,0.3815664,0.0000000,0.0000000,0.0186385,0.0186385,0.0000000,0.0000000,0.0011244,0.0000000,0.0000000,0.0000000,0.0186385,0.0000000,0.0000000,0.0011244,0.0000000,0.0000000,0.0000000,0.0186385,0.0000000,0.0000000,0.0011244
31.9077280,1.0003500,,-0.9726826,-0.2321186,0.0000792,0.0030967,0.0030164,-0.0000250,-0.0061722,,,,1.6470766,-6.8448272,-16.9743748,0.0000000,0.0000000,0.0000000,0.0200070,0.3823122,0.0000000,0.0000000,0.0186610,0.0000000,0.0000000,0.0000000,0.3823122,0.0000000,0.0000000,0.0186610,0.0000000,0.0000000,0.0000000,0.3823122,0.0000000,0.0000000,0.0186610,0.0186610,0.0000000,0.0000000,0.0011244,0.0000000,0.0000000,0.0000000,0.0186610,0.0000000,0.0000000,0.0011244,0.0000000,0.0000000,0.0000000,0.0186610,0.0000000,0.0000000,0.0011244
31.9275960,0.9997500,,-0.9726825,-0.2321186,0.0000766,0.0031256,0.0040259,-0.0010730,-0.0048027,,,,1.6470766,-6.8448272,-16.9743748,0.0000000,0.0000000,0.0000000,0.0199950,0.3830585,0.0000000,0.0000000,0.0186835,0.0000000,0.0000000,0.0000000,0.3830585,0.0000000,0.0000000,0.0186835,0.0000000,0.0000000,0.0000000,0.3830585,0.0000000,0.0000000,0.0186835,0.0186835,0.0000000,0.0000000,0.0011244,0.0000000,0.0000000,0.0000000,0.0186835,0.0000000,0.0000000,0.0011244,0.0000000,0.0000000,0.0000000,0.0186835,0.0000000,0.0000000,0.0011244
31.9486870,1.0499500,,-0.9726825,-0.2321185,0.0000945,0.0031384,0.0048129,-0.0069605,0.0010090,,,,1.6470766,-6.8448272,-16.9743748,0.0000000,0.0000000,0.0000000,0.0209990,0.3838431,0.0000000,0.0000000,0.0187071,0.0000000,0.0000000,0.0000000,0.3838431,0.0000000,0.0000000,0.0187071,0.0000000,0.0000000,0.0000000,0.3838431,0.0000000,0.0000000,0.0187071,0.0187071,0.0000000,0.0000000,0.0011245,0.0000000,0.0000000,0.0000000,0.0187071,0.0000000,0.0000000,0.0011245,0.0000000,0.0000000,0.0000000,0.0187071,0.0000000,0.0000000,0.0011245
31.9646090,,0.9999700,-0.9726825,-0.2321185,0.0000945,0.0031384,,,,0.0000000,0.0000000,0.0000000,1.6470766,-6.8448272,-16.9743748,0.0000000,0.0000000,0.0000000,0.0999970,0.3786296,0.0000000,0.0000000,0.0184530,0.0000000,0.0000000,0.0000000,0.3786296,0.0000000,0.0000000,0.0184530,0.0000000,0.0000000,0.0000000,0.3786296,0.0000000,0.0000000,0.0184530,0.0184530,0.0000000,0.0000000,0.0011121,0.0000000,0.0000000,0.0000000,0.0184530,0.0000000,0.0000000,0.0011121,0.0000000,0.0000000,0.0000000,0.0184530,0.0000000,0.0000000,0.0011121
31.9783650,1.1002001,,-0.9726825,-0.2321185,0.0001168,0.0031411,0.0045046,-0.0055096,0.0014734,,,,1.6470766,-6.8448272,-16.9743748,0.0000000,0.0000000,0.0000000,0.0220040,0.3794416,0.0000000,0.0000000,0.0184775,0.0000000,0.0000000,0.0000000,0.3794416,0.0000000,0.0000000,0.0184775,0.0000000,0.0000000,0.0000000,0.3794416,0.0000000,0.0000000,0.0184775,0.0184775,0.0000000,0.0000000,0.0011121,0.0000000,0.0000000,0.0000000,0.0184775,0.0000000,0.0000000,0.0011121,0.0000000,0.0000000,0.0000000,0.0184775,0.0000000,0.0000000,0.0011121
31.9918480,1.0498501,,-0.9726825,-0.2321185,0.0001175,0.0031438,0.0011536,-0.0043036,-0.0019565,,,,1.6470766,-6.8448272,-16.9743748,0.0000000,0.0000000,0.0000000,0.0209970,0.3802176,0.0000000,0.0000000,0.0185008,0.0000000,0.0000000,0.0000000,0.3802176,0.0000000,0.0000000,0.0185008,0.0000000,0.0000000,0.0000000,0.3802176,0.0000000,0.0000000,0.0185008,0.0185008,0.0000000,0.0000000,0.0011121,0.0000000,0.0000000,0.0000000,0.0185008,0.0000000,0.0000000,0.0011121,0.0000000,0.0000000,0.0000000,0.0185008,0.0000000,0.0000000,0.0011121
32.0116710,1.0006500,,-0.9726824,-0.2321185,0.0001226,0.0031612,0.0055817,-0.0009769,0.0024321,,,,1.6470766,-6.8448272,-16.9743748,0.0000000,0.0000000,0.0000000,0.0200130,0.3809581,0.0000000,0.0000000,0.0185231,0.0000000,0.0000000,0.0000000,0.3809581,0.0000000,0.0000000,0.0185231,0.0000000,0.0000000,0.0000000,0.3809581,0.0000000,0.0000000,0.0185231,0.0185231,0.0000000,0.0000000,0.0011121,0.0000000,0.0000000,0.0000000,0.0185231,0.0000000,0.0000000,0.0011121,0.0000000,0.0000000,0.0000000,0.0185231,0.0000000,0.0000000,0.0011121
32.0314540,0.9993000,,-0.9726825,-0.2321185,0.0001098,0.0031238,-0.0041748,-0.0023424,-0.0007447,,,,1.6470766,-6.8448272,-16.9743748,0.0000000,0.0000000,0.0000000,0.0199860,0.3816985,0.0000000,0.0000000,0.0185453,0.0000000,0.0000000,0.0000000,0.3816985,0.0000000,0.0000000,0.0185453,0.0000000,0.0000000,0.0000000,0.3816985,0.0000000,0.0000000,0.0185453,0.0185453,0.0000000,0.0000000,0.0011121,0.0000000,0.0000000,0.0000000,0.0185453,0.0000000,0.0000000,0.0011121,0.0000000,0.0000000,0.0000000,0.0185453,0.0000000,0.0000000,0.0011121
32.0524990,1.0501001,,-0.9726825,-0.2321185,0.0001085,0.0031121,-0.0007446,0.0001640,0.0027938,,,,1.6470766,-6.8448272,-16.9743748,0.0000000,0.0000000,0.0000000,0.0210020,0.3824775,0.0000000,0.0000000,0.0185686,0.0000000,0.0000000,0.0000000,0.3824775,0.0000000,0.0000000,0.0185686,0.0000000,0.0000000,0.0000000,0.3824775,0.0000000,0.0000000,0.0185686,0.0185687,0.0000000,0.0000000,0.0011121,0.0000000,0.0000000,0.0000000,0.0185687,0.0000000,0.0000000,0.0011121,0.0000000,0.0000000,0.0000000,0.0185687,0.0000000,0.0000000,0.0011121
32.0686360,,1.0200399,-0.9726825,-0.2321185,0.0001085,0.0031121,,,,0.0000000,0.0000000,0.0000000,1.6470766,-6.8448272,-16.9743748,0.0000000,0.0000000,0.0000000,0.1020040,0.3773007,0.0000000,0.0000000,0.0183173,0.0000000,0.0000000,0.0000000,0.3773007,0.0000000,0.0000000,0.0183173,0.0000000,0.0000000,0.0000000,0.3773007,0.0000000,0.0000000,0.0183173,0.0183173,0.0000000,0.0000000,0.0010999,0.0000000,0.0000000,0.0000000,0.0183173,0.0000000,0.0000000,0.0010999,0.0000000,0.0000000,0.0000000,0.0183173,0.0000000,0.0000000,0.0010999
32.0823220,1.0999000,,-0.9726825,-0.2321186,0.0001005,0.0031027,-0.0012421,0.0067806,-0.0010521,,,,1.6470766,-6.8448272,-16.9743748,0.0000000,0.0000000,0.0000000,0.0219980,0.3781066,0.0000000,0.0000000,0.0183415,0.0000000,0.0000000,0.0000000,0.3781066,0.0000000,0.0000000,0.0183415,0.0000000,0.0000000,0.0000000,0.3781066,0.0000000,0.0000000,0.0183415,0.0183415,0.0000000,0.0000000,0.0010999,0.0000000,0.0000000,0.0000000,0.0183415,0.0000000,0.0000000,0.0010999,0.0000000,0.0000000,0.0000000,0.0183415,0.0000000,0.0000000,0.0010999
32.0958620,1.0502501,,-0.9726825,-0.2321185,0.0001079,0.0031201,-0.0000107,-0.0015841,-0.0007778,,,,1.6470766,-6.8448272,-16.9743748,0.0000000,0.0000000,0.0000000,0.0210050,0.3788771,0.0000000,0.0000000,0.0183646,0.0000000,0.0000000,0.0000000,0.3788771,0.0000000,0.0000000,0.0183646,0.0000000,0.0000000,0.0000000,0.3788771,0.0000000,0.0000000,0.0183646,0.0183646,0.0000000,0.0000000,0.0010999,0.0000000,0.0000000,0.0000000,0.0183646,0.0000000,0.0000000,0.0010999,0.0000000,0.0000000,0.0000000,0.0183646,0.0000000,0.0000000,0.0010999
32.1156050,1.0002000,,-0.9726825,-0.2321185,0.0001193,0.0031273,-0.0062157,-0.0016160,0.0018007,,,,1.6470766,-6.8448272,-16.9743748,0.0000000,0.0000000,0.0000000,0.0200040,0.3796119,0.0000000,0.0000000,0.0183866,0.0000000,0.0000000,0.0000000,0.3796119,0.0000000,0.0000000,0.0183866,0.0000000,0.0000000,0.0000000,0.3796119,0.0000000,0.0000000,0.0183866,0.0183866,0.0000000,0.0000000,0.0010999,0.0000000,0.0000000,0.0000000,0.0183866,0.0000000,0.0000000,0.0010999,0.0000000,0.0000000,0.0000000,0.0183866,0.0000000,0.0000000,0.0010999
32.1366740,1.0496501,,-0.9726825,-0.2321185,0.0001181,0.0031043,-0.0046795,0.0000236,-0.0010604,,,,1.6470766,-6.8448272,-16.9743748,0.0000000,0.0000000,0.0000000,0.0209930,0.3803838,0.0000000,0.0000000,0.0184097,0.0000000,0.0000000,0.0000000,0.3803838,0.0000000,0.0000000,0.0184097,0.0000000,0.0000000,0.0000000,0.3803838,0.0000000,0.0000000,0.0184097,0.0184097,0.0000000,0.0000000,0.0010999,0.0000000,0.0000000,0.0000000,0.0184097,0.0000000,0.0000000,0.0010999,0.0000000,0.0000000,0.0000000,0.0184097,0.0000000,0.0000000,0.0010999
32.1579220,1.0498999,,-0.9726826,-0.2321185,0.0001317,0.0030836,-0.0036367,-0.0040547,-0.0037117,,,,1.6470766,-6.8448272,-16.9743748,0.0000000,0.0000000,0.0000000,0.0209980,0.3811570,0.0000000,0.0000000,0.0184328,0.0000000,0.0000000,0.0000000,0.3811570,0.0000000,0.0000000,0.0184328,0.0000000,0.0000000,0.0000000,0.3811570,0.0000000,0.0000000,0.0184328,0.0184328,0.0000000,0.0000000,0.0010999,0.0000000,0.0000000,0.0000000,0.0184328,0.0000000,0.0000000,0.0010999,0.0000000,0.0000000,0.0000000,0.0184328,0.0000000,0.0000000,0.0010999
32.1739640,,0.9999000,-0.9726826,-0.2321185,0.0001317,0.0030836,,,,0.0000000,0.0000000,0.0000000,1.6470766,-6.8448272,-16.9743748,0.0000000,0.0000000,0.0000000,0.0999900,0.3760156,0.0000000,0.0000000,0.0181842,0.0000000,0.0000000,0.0000000,0.3760156,0.0000000,0.0000000,0.0181842,0.0000000,0.0000000,0.0000000,0.3760156,0.0000000,0.0000000,0.0181842,0.0181842,0.0000000,0.0000000,0.0010879,0.0000000,0.0000000,0.0000000,0.0181842,0.0000000,0.0000000,0.0010879,0.0000000,0.0000000,0.0000000,0.0181842,0.0000000,0.0000000,0.0010879
32.1887610,1.1000000,,-0.9726826,-0.2321184,0.0001647,0.0030795,-0.0038020,-0.0092371,-0.0038166,,,,1.6470766,-6.8448272,-16.9743748,0.0000000,0.0000000,0.0000000,0.0220000,0.3768157,0.0000000,0.0000000,0.0182081,0.0000000,0.0000000,0.0000000,0.3768157,0.0000000,0.0000000,0.0182081,0.0000000,0.0000000,0.0000000,0.3768157,0.0000000,0.0000000,0.0182081,0.0182081,0.0000000,0.0000000,0.0010879,0.0000000,0.0000000,0.0000000,0.0182081,0.0000000,0.0000000,0.0010879,0.0000000,0.0000000,0.0000000,0.0182081,0.0000000,0.0000000,0.0010879
32.2017700,1.1000000,,-0.9726827,-0.2321182,0.0002227,0.0030659,-0.0072187,-0.0018262,0.0029669,,,,1.6470766,-6.8448272,-16.9743748,0.0000000,0.0000000,0.0000000,0.0220000,0.3776169,0.0000000,0.0000000,0.0182320,0.0000000,0.0000000,0.0000000,0.3776169,0.0000000,0.0000000,0.0182320,0.0000000,0.0000000,0.0000000,0.3776169,0.0000000,0.0000000,0.0182320,0.0182320,0.0000000,0.0000000,0.0010879,0.0000000,0.0000000,0.0000000,0.0182320,0.0000000,0.0000000,0.0010879,0.0000000,0.0000000,0.0000000,0.0182320,0.0000000,0.0000000,0.0010879
32.2216740,1.0006500,,-0.9726828,-0.2321182,0.0002396,0.0030440,-0.0062567,0.0042901,0.0044055,,,,1.6470766,-6.8448272,-16.9743748,0.0000000,0.0000000,0.0000000,0.0200130,0.3783467,0.0000000,0.0000000,0.0182538,0.0000000,0.0000000,0.0000000,0.3783467,0.0000000,0.0000000,0.0182538,0.0000000,0.0000000,0.0000000,0.3783467,0.0000000,0.0000000,0.0182538,0.0182538,0.0000000,0.0000000,0.0010879,0.0000000,0.0000000,0.0000000,0.0182538,0.0000000,0.0000000,0.0010879,0.0000000,0.0000000,0.0000000,0.0182538,0.0000000,0.0000000,0.0010879
32.2414900,0.9995000,,-0.9726828,-0.2321181,0.0002668,0.0030446,-0.0023273,0.0059140,0.0012186,,,,1.6470766,-6.8448272,-16.9743748,0.0000000,0.0000000,0.0000000,0.0199900,0.3790765,0.0000000,0.0000000,0.0182756,0.0000000,0.0000000,0.0000000,0.3790765,0.0000000,0.0000000,0.0182756,0.0000000,0.0000000,0.0000000,0.3790765,0.0000000,0.0000000,0.0182756,0.0182756,0.0000000,0.0000000,0.0010879,0.0000000,0.0000000,0.0000000,0.0182756,0.0000000,0.0000000,0.0010879,0.0000000,0.0000000,0.0000000,0.0182756,0.0000000,0.0000000,0.0010879
32.2646780,,1.0100200,-0.9726828,-0.2321181,0.0002734,0.0030495,,,,0.0000000,0.0000000,0.0000000,1.6470766,-6.8448272,-16.9743748,0.0000000,0.0000000,0.0000000,0.1010020,0.3739907,0.0000000,0.0000000,0.0180304,0.0000000,0.0000000,0.0000000,0.3739907,0.0000000,0.0000000,0.0180304,0.0000000,0.0000000,0.0000000,0.3739907,0.0000000,0.0000000,0.0180304,0.0180304,0.0000000,0.0000000,0.0010761,0.0000000,0.0000000,0.0000000,0.0180304,0.0000000,0.0000000,0.0010761,0.0000000,0.0000000,0.0000000,0.0180304,0.0000000,0.0000000,0.0010761
32.2784040,1.0998001,,-0.9726828,-0.2321181,0.0002734,0.0030495,-0.0003778,0.0013548,-0.0018398,,,,1.6470766,-6.8448272,-16.9743748,0.0000000,0.0000000,0.0000000,0.0219960,0.3747839,0.0000000,0.0000000,0.0180540,0.0000000,0.0000000,0.0000000,0.3747839,0.0000000,0.0000000,0.0180540,0.0000000,0.0000000,0.0000000,0.3747839,0.0000000,0.0000000,0.0180540,0.0180540,0.0000000,0.0000000,0.0010761,0.0000000,0.0000000,0.0000000,0.0180540,0.0000000,0.0000000,0.0010761,0.0000000,0.0000000,0.0000000,0.0180540,0.0000000,0.0000000,0.0010761
32.2917110,1.4000001,,-0.9726828,-0.2321181,0.0002799,0.0030518,0.0028018,0.0061629,0.0005373,,,,1.6470766,-6.8448272,-16.9743748,0.0000000,0.0000000,0.0000000,0.0280000,0.3757949,0.0000000,0.0000000,0.0180842,0.0000000,0.0000000,0.0000000,0.3757949,0.0000000,0.0000000,0.0180842,0.0000000,0.0000000,0.0000000,0.3757949,0.0000000,0.0000000,0.0180842,0.0180842,0.0000000,0.0000000,0.0010761,0.0000000,0.0000000,0.0000000,0.0180842,0.0000000,0.0000000,0.0010761,0.0000000,0.0000000,0.0000000,0.0180842,0.0000000,0.0000000,0.0010761
32.3128170,1.0504000,,-0.9726828,-0.2321181,0.0002868,0.0030439,-0.0065794,0.0048820,0.0002610,,,,1.6470766,-6.8448272,-16.9743748,0.0000000,0.0000000,0.0000000,0.0210080,0.3765547,0.0000000,0.0000000,0.0181068,0.0000000,0.0000000,0.0000000,0.3765547,0.0000000,0.0000000,0.0181068,0.0000000,0.0000000,0.0000000,0.3765547,0.0000000,0.0000000,0.0181068,0.0181068,0.0000000,0.0000000,0.0010761,0.0000000,0.0000000,0.0000000,0.0181068,0.0000000,0.0000000,0.0010761,0.0000000,0.0000000,0.0000000,0.0181068,0.0000000,0.0000000,0.0010761
32.3328000,0.9996500,,-0.9726828,-0.2321181,0.0002711,0.0030339,-0.0003219,0.0012966,0.0042733,,,,1.6470766,-6.8448272,-16.9743748,0.0000000,0.0000000,0.0000000,0.0199930,0.3772787,0.0000000,0.0000000,0.0181283,0.0000000,0.0000000,0.0000000,0.3772787,0.0000000,0.0000000,0.0181283,0.0000000,0.0000000,0.0000000,0.3772787,0.0000000,0.0000000,0.0181283,0.0181283,0.0000000,0.0000000,0.0010761,0.0000000,0.0000000,0.0000000,0.0181283,0.0000000,0.0000000,0.0010761,0.0000000,0.0000000,0.0000000,0.0181283,0.0000000,0.0000000,0.0010761
32.3528350,1.0009000,,-0.9726828,-0.2321180,0.0002982,0.0030413,-0.0073860,0.0014952,0.0035939,,,,1.6470766,-6.8448272,-16.9743748,0.0000000,0.0000000,0.0000000,0.0200180,0.3780045,0.0000000,0.0000000,0.0181498,0.0000000,0.0000000,0.0000000,0.3780045,0.0000000,0.0000000,0.0181498,0.0000000,0.0000000,0.0000000,0.3780045,0.0000000,0.0000000,0.0181498,0.0181498,0.0000000,0.0000000,0.0010761,0.0000000,0.0000000,0.0000000,0.0181498,0.0000000,0.0000000,0.0010761,0.0000000,0.0000000,0.0000000,0.0181498,0.0000000,0.0000000,0.0010761
32.3679950,,1.0000100,-0.9726828,-0.2321180,0.0002982,0.0030413,,,,0.0000000,0.0000000,0.0000000,1.6470766,-6.8448272,-16.9743748,0.0000000,0.0000000,0.0000000,0.1000010,0.3729473,0.0000000,0.0000000,0.0179070,0.0000000,0.0000000,0.0000000,0.3729473,0.0000000,0.0000000,0.0179070,0.0000000,0.0000000,0.0000000,0.3729473,0.0000000,0.0000000,0.0179070,0.0179070,0.0000000,0.0000000,0.0010644,0.0000000,0.0000000,0.0000000,0.0179070,0.0000000,0.0000000,0.0010644,0.0000000,0.0000000,0.0000000,0.0179070,0.0000000,0.0000000,0.0010644
32.3825390,1.0993000,,-0.9726829,-0.2321180,0.0003036,0.0030197,-0.0033497,-0.0011445,-0.0050466,,,,1.6470766,-6.8448272,-16.9743748,0.0000000,0.0000000,0.0000000,0.0219860,0.3737347,0.0000000,0.0000000,0.0179304,0.0000000,0.0000000,0.0000000,0.3737347,0.0000000,0.0000000,0.0179304,0.0000000,0.0000000,0.0000000,0.3737347,0.0000000,0.0000000,0.0179304,0.0179304,0.0000000,0.0000000,0.0010644,0.0000000,0.0000000,0.0000000,0.0179304,0.0000000,0.0000000,0.0010644,0.0000000,0.0000000,0.0000000,0.0179304,0.0000000,0.0000000,0.0010644
32.3957410,1.0498501,,-0.9726830,-0.2321180,0.0003189,0.0029824,-0.0032465,0.0009078,-0.0057048,,,,1.6470766,-6.8448272,-16.9743748,0.0000000,0.0000000,0.0000000,0.0209970,0.3744877,0.0000000,0.0000000,0.0179528,0.0000000,0.0000000,0.0000000,0.3744877,0.0000000,0.0000000,0.0179528,0.0000000,0.0000000,0.0000000,0.3744877,0.0000000,0.0000000,0.0179528,0.0179528,0.0000000,0.0000000,0.0010644,0.0000000,0.0000000,0.0000000,0.0179528,0.0000000,0.0000000,0.0010644,0.0000000,0.0000000,0.0000000,0.0179528,0.0000000,0.0000000,0.0010644
32.4165180,1.0500000,,-0.9726831,-0.2321181,0.0002997,0.0029462,-0.0022641,0.0001793,-0.0026159,,,,1.6470766,-6.8448272,-16.9743748,0.0000000,0.0000000,0.0000000,0.0210000,0.3752417,0.0000000,0.0000000,0.0179751,0.0000000,0.0000000,0.0000000,0.3752417,0.0000000,0.0000000,0.0179751,0.0000000,0.0000000,0.0000000,0.3752417,0.0000000,0.0000000,0.0179751,0.0179751,0.0000000,0.0000000,0.0010645,0.0000000,0.0000000,0.0000000,0.0179751,0.0000000,0.0000000,0.0010645,0.0000000,0.0000000,0.0000000,0.0179751,0.0000000,0.0000000,0.0010645
32.4390700,1.0504000,,-0.9726831,-0.2321182,0.0002667,0.0029341,0.0045213,-0.0014057,0.0072294,,,,1.6470766,-6.8448272,-16.9743748,0.0000000,0.0000000,0.0000000,0.0210080,0.3759969,0.0000000,0.0000000,0.0179975,0.0000000,0.0000000,0.0000000,0.3759969,0.0000000,0.0000000,0.0179975,0.0000000,0.0000000,0.0000000,0.3759969,0.0000000,0.0000000,0.0179975,0.0179975,0.0000000,0.0000000,0.0010645,0.0000000,0.0000000,0.0000000,0.0179975,0.0000000,0.0000000,0.0010645,0.0000000,0.0000000,0.0000000,0.0179975,0.0000000,0.0000000,0.0010645
32.4578910,0.9998000,,-0.9726831,-0.2321182,0.0002633,0.0029204,0.0018410,0.0004797,0.0043395,,,,1.6470766,-6.8448272,-16.9743748,0.0000000,0.0000000,0.0000000,0.0199960,0.3767167,0.0000000,0.0000000,0.0180188,0.0000000,0.0000000,0.0000000,0.3767167,0.0000000,0.0000000,0.0180188,0.0000000,0.0000000,0.0000000,0.3767167,0.0000000,0.0000000,0.0180188,0.0180188,0.0000000,0.0000000,0.0010645,0.0000000,0.0000000,0.0000000,0.0180188,0.0000000,0.0000000,0.0010645,0.0000000,0.0000000,0.0000000,0.0180188,0.0000000,0.0000000,0.0010645
32.4725830,,1.0200000,-0.9726831,-0.2321182,0.0002633,0.0029204,,,,0.0000000,0.0000000,0.0000000,1.6470766,-6.8448272,-16.9743748,0.0000000,0.0000000,0.0000000,0.1020000,0.3716937,0.0000000,0.0000000,0.0177785,0.0000000,0.0000000,0.0000000,0.3716937,0.0000000,0.0000000,0.0177785,0.0000000,0.0000000,0.0000000,0.3716937,0.0000000,0.0000000,0.0177785,0.0177785,0.0000000,0.0000000,0.0010530,0.0000000,0.0000000,0.0000000,0.0177785,0.0000000,0.0000000,0.0010530,0.0000000,0.0000000,0.0000000,0.0177785,0.0000000,0.0000000,0.0010530
32.4865190,0.9998000,,-0.9726832,-0.2321183,0.0002428,0.0028964,-0.0041683,-0.0000882,0.0021621,,,,1.6470766,-6.8448272,-16.9743748,0.0000000,0.0000000,0.0000000,0.0199960,0.3724047,0.0000000,0.0000000,0.0177996,0.0000000,0.0000000,0.0000000,0.3724047,0.0000000,0.0000000,0.0177996,0.0000000,0.0000000,0.0000000,0.3724047,0.0000000,0.0000000,0.0177996,0.0177996,0.0000000,0.0000000,0.0010530,0.0000000,0.0000000,0.0000000,0.0177996,0.0000000,0.0000000,0.0010530,0.0000000,0.0000000,0.0000000,0.0177996,0.0000000,0.0000000,0.0010530
32.4997190,1.0999000,,-0.9726833,-0.2321183,0.0002201,0.0028771,0.0006243,-0.0047820,-0.0042977,,,,1.6470766,-6.8448272,-16.9743748,0.0000000,0.0000000,0.0000000,0.0219980,0.3731878,0.0000000,0.0000000,0.0178227,0.0000000,0.0000000,0.0000000,0.3731878,0.0000000,0.0000000,0.0178227,0.0000000,0.0000000,0.0000000,0.3731878,0.0000000,0.0000000,0.0178227,0.0178227,0.0000000,0.0000000,0.0010530,0.0000000,0.0000000,0.0000000,0.0178227,0.0000000,0.0000000,0.0010530,0.0000000,0.0000000,0.0000000,0.0178227,0.0000000,0.0000000,0.0010530
32.5206810,1.0501001,,-0.9726833,-0.2321184,0.0002136,0.0028743,-0.0025870,-0.0029632,-0.0060627,,,,1.6470766,-6.8448272,-16.9743748,0.0000000,0.0000000,0.0000000,0.0210020,0.3739364,0.0000000,0.0000000,0.0178448,0.0000000,0.0000000,0.0000000,0.3739364,0.0000000,0.0000000,0.0178448,0.0000000,0.0000000,0.0000000,0.3739364,0.0000000,0.0000000,0.0178448,0.0178448,0.0000000,0.0000000,0.0010530,0.0000000,0.0000000,0.0000000,0.0178448,0.0000000,0.0000000,0.0010530,0.0000000,0.0000000,0.0000000,0.0178448,0.0000000,0.0000000,0.0010530
32.5430960,1.0505501,,-0.9726833,-0.2321184,0.0001976,0.0028754,-0.0005611,-0.0040069,-0.0005976,,,,1.6470766,-6.8448272,-16.9743748,0.0000000,0.0000000,0.0000000,0.0210110,0.3746863,0.0000000,0.0000000,0.0178670,0.0000000,0.0000000,0.0000000,0.3746863,0.0000000,0.0000000,0.0178670,0.0000000,0.0000000,0.0000000,0.3746863,0.0000000,0.0000000,0.0178670,0.0178670,0.0000000,0.0000000,0.0010530,0.0000000,0.0000000,0.0000000,0.0178670,0.0000000,0.0000000,0.0010530,0.0000000,0.0000000,0.0000000,0.0178670,0.0000000,0.0000000,0.0010530
32.5616850,0.9997500,,-0.9726833,-0.2321185,0.0001661,0.0028839,-0.0017912,-0.0025757,-0.0044568,,,,1.6470766,-6.8448272,-16.9743748,0.0000000,0.0000000,0.0000000,0.0199950,0.3754008,0.0000000,0.0000000,0.0178880,0.0000000,0.0000000,0.0000000,0.3754008,0.0000000,0.0000000,0.0178880,0.0000000,0.0000000,0.0000000,0.3754008,0.0000000,0.0000000,0.0178880,0.0178880,0.0000000,0.0000000,0.0010530,0.0000000,0.0000000,0.0000000,0.0178880,0.0000000,0.0000000,0.0010530,0.0000000,0.0000000,0.0000000,0.0178880,0.0000000,0.0000000,0.0010530
32.5775320,,1.0000700,-0.9726833,-0.2321185,0.0001661,0.0028839,,,,0.0000000,0.0000000,0.0000000,1.6470766,-6.8448272,-16.9743748,0.0000000,0.0000000,0.0000000,0.1000070,0.3704126,0.0000000,0.0000000,0.0176503,0.0000000,0.0000000,0.0000000,0.3704126,0.0000000,0.0000000,0.0176503,0.0000000,0.0000000,0.0000000,0.3704126,0.0000000,0.0000000,0.0176503,0.0176503,0.0000000,0.0000000,0.0010417,0.0000000,0.0000000,0.0000000,0.0176503,0.0000000,0.0000000,0.0010417,0.0000000,0.0000000,0.0000000,0.0176503,0.0000000,0.0000000,0.0010417
32.5915040,1.0000501,,-0.9726832,-0.2321186,0.0001301,0.0028940,-0.0004989,-0.0035614,-0.0017478,,,,1.6470766,-6.8448272,-16.9743748,0.0000000,0.0000000,0.0000000,0.0200010,0.3711186,0.0000000,0.0000000,0.0176712,0.0000000,0.0000000,0.0000000,0.3711186,0.0000000,0.0000000,0.0176712,0.0000000,0.0000000,0.0000000,0.3711186,0.0000000,0.0000000,0.0176712,0.0176712,0.0000000,0.0000000,0.0010417,0.0000000,0.0000000,0.0000000,0.0176712,0.0000000,0.0000000,0.0010417,0.0000000,0.0000000,0.0000000,0.0176712,0.0000000,0.0000000,0.0010417
32.6046460,1.1501000,,-0.9726832,-0.2321186,0.0001131,0.0028986,-0.0049797,-0.0047867,-0.0018581,,,,1.6470766,-6.8448272,-16.9743748,0.0000000,0.0000000,0.0000000,0.0230020,0.3719316,0.0000000,0.0000000,0.0176951,0.0000000,0.0000000,0.0000000,0.3719316,0.0000000,0.0000000,0.0176951,0.0000000,0.0000000,0.0000000,0.3719316,0.0000000,0.0000000,0.0176951,0.0176951,0.0000000,0.0000000,0.0010417,0.0000000,0.0000000,0.0000000,0.0176951,0.0000000,0.0000000,0.0010417,0.0000000,0.0000000,0.0000000,0.0176951,0.0000000,0.0000000,0.0010417
32.6256340,1.0495499,,-0.9726832,-0.2321186,0.0001193,0.0028983,-0.0069454,0.0021690,-0.0070402,,,,1.6470766,-6.8448272,-16.9743748,0.0000000,0.0000000,0.0000000,0.0209910,0.3726745,0.0000000,0.0000000,0.0177170,0.0000000,0.0000000,0.0000000,0.3726745,0.0000000,0.0000000,0.0177170,0.0000000,0.0000000,0.0000000,0.3726745,0.0000000,0.0000000,0.0177170,0.0177170,0.0000000,0.0000000,0.0010417,0.0000000,0.0000000,0.0000000,0.0177170,0.0000000,0.0000000,0.0010417,0.0000000,0.0000000,0.0000000,0.0177170,0.0000000,0.0000000,0.0010417
32.6480970,1.0506001,,-0.9726832,-0.2321185,0.0001443,0.0028931,-0.0032438,0.0022289,-0.0030394,,,,1.6470766,-6.8448272,-16.9743748,0.0000000,0.0000000,0.0000000,0.0210120,0.3734190,0.0000000,0.0000000,0.0177389,0.0000000,0.0000000,0.0000000,0.3734190,0.0000000,0.0000000,0.0177389,0.0000000,0.0000000,0.0000000,0.3734190,0.0000000,0.0000000,0.0177389,0.0177389,0.0000000,0.0000000,0.0010417,0.0000000,0.0000000,0.0000000,0.0177389,0.0000000,0.0000000,0.0010417,0.0000000,0.0000000,0.0000000,0.0177389,0.0000000,0.0000000,0.0010417
32.6691800,,1.0099100,-0.9726832,-0.2321184,0.0001881,0.0028905,,,,0.0000000,0.0000000,0.0000000,1.6470766,-6.8448272,-16.9743748,0.0000000,0.0000000,0.0000000,0.1009910,0.3684830,0.0000000,0.0000000,0.0175044,0.0000000,0.0000000,0.0000000,0.3684830,0.0000000,0.0000000,0.0175044,0.0000000,0.0000000,0.0000000,0.3684830,0.0000000,0.0000000,0.0175044,0.0175044,0.0000000,0.0000000,0.0010305,0.0000000,0.0000000,0.0000000,0.0175044,0.0000000,0.0000000,0.0010305,0.0000000,0.0000000,0.0000000,0.0175044,0.0000000,0.0000000,0.0010305
32.6824370,1.0000000,,-0.9726832,-0.2321184,0.0001881,0.0028905,-0.0059707,0.0017859,0.0016465,,,,1.6470766,-6.8448272,-16.9743748,0.0000000,0.0000000,0.0000000,0.0200000,0.3691832,0.0000000,0.0000000,0.0175250,0.0000000,0.0000000,0.0000000,0.3691832,0.0000000,0.0000000,0.0175250,0.0000000,0.0000000,0.0000000,0.3691832,0.0000000,0.0000000,0.0175250,0.0175250,0.0000000,0.0000000,0.0010305,0.0000000,0.0000000,0.0000000,0.0175250,0.0000000,0.0000000,0.0010305,0.0000000,0.0000000,0.0000000,0.0175250,0.0000000,0.0000000,0.0010305
32.6958530,1.4495001,,-0.9726832,-0.2321185,0.0001649,0.0029050,0.0072228,-0.0001370,-0.0006492,,,,1.6470766,-6.8448272,-16.9743748,0.0000000,0.0000000,0.0000000,0.0289900,0.3701993,0.0000000,0.0000000,0.0175549,0.0000000,0.0000000,0.0000000,0.3701993,0.0000000,0.0000000,0.0175549,0.0000000,0.0000000,0.0000000,0.3701993,0.0000000,0.0000000,0.0175549,0.0175549,0.0000000,0.0000000,0.0010305,0.0000000,0.0000000,0.0000000,0.0175549,0.0000000,0.0000000,0.0010305,0.0000000,0.0000000,0.0000000,0.0175549,0.0000000,0.0000000,0.0010305
32.7167970,1.0503000,,-0.9726833,-0.2321185,0.0001594,0.0028827,0.0040768,0.0032426,0.0018650,,,,1.6470766,-6.8448272,-16.9743748,0.0000000,0.0000000,0.0000000,0.0210060,0.3709368,0.0000000,0.0000000,0.0175765,0.0000000,0.0000000,0.0000000,0.3709368,0.0000000,0.0000000,0.0175765,0.0000000,0.0000000,0.0000000,0.3709368,0.0000000,0.0000000,0.0175765,0.0175765,0.0000000,0.0000000,0.0010306,0.0000000,0.0000000,0.0000000,0.0175765,0.0000000,0.0000000,0.0010306,0.0000000,0.0000000,0.0000000,0.0175765,0.0000000,0.0000000,0.0010306
32.7365800,1.0001501,,-0.9726832,-0.2321186,0.0001395,0.0028961,0.0083174,-0.0025977,0.0062960,,,,1.6470766,-6.8448272,-16.9743748,0.0000000,0.0000000,0.0000000,0.0200030,0.3716399,0.0000000,0.0000000,0.0175971,0.0000000,0.0000000,0.0000000,0.3716399,0.0000000,0.0000000,0.0175971,0.0000000,0.0000000,0.0000000,0.3716399,0.0000000,0.0000000,0.0175971,0.0175971,0.0000000,0.0000000,0.0010306,0.0000000,0.0000000,0.0000000,0.0175971,0.0000000,0.0000000,0.0010306,0.0000000,0.0000000,0.0000000,0.0175971,0.0000000,0.0000000,0.0010306
32.7576430,1.0494500,,-0.9726832,-0.2321185,0.0001490,0.0029015,-0.0005105,-0.0030689,0.0075349,,,,1.6470766,-6.8448272,-16.9743748,0.0000000,0.0000000,0.0000000,0.0209890,0.3723786,0.0000000,0.0000000,0.0176188,0.0000000,0.0000000,0.0000000,0.3723786,0.0000000,0.0000000,0.0176188,0.0000000,0.0000000,0.0000000,0.3723786,0.0000000,0.0000000,0.0176188,0.0176188,0.0000000,0.0000000,0.0010306,0.0000000,0.0000000,0.0000000,0.0176188,0.0000000,0.0000000,0.0010306,0.0000000,0.0000000,0.0000000,0.0176188,0.0000000,0.0000000,0.0010306
32.7734260,,1.0200100,-0.9726832,-0.2321185,0.0001490,0.0029015,,,,0.0000000,0.0000000,0.0000000,1.6470766,-6.8448272,-16.9743748,0.0000000,0.0000000,0.0000000,0.1020010,0.3674698,0.0000000,0.0000000,0.0173865,0.0000000,0.0000000,0.0000000,0.3674698,0.0000000,0.0000000,0.0173865,0.0000000,0.0000000,0.0000000,0.3674698,0.0000000,0.0000000,0.0173865,0.0173865,0.0000000,0.0000000,0.0010196,0.0000000,0.0000000,0.0000000,0.0173865,0.0000000,0.0000000,0.0010196,0.0000000,0.0000000,0.0000000,0.0173865,0.0000000,0.0000000,0.0010196
32.7872880,1.0999500,,-0.9726832,-0.2321186,0.0001475,0.0028847,-0.0007740,0.0000754,-0.0023437,,,,1.6470766,-6.8448272,-16.9743748,0.0000000,0.0000000,0.0000000,0.0219990,0.3682348,0.0000000,0.0000000,0.0174090,0.0000000,0.0000000,0.0000000,0.3682348,0.0000000,0.0000000,0.0174090,0.0000000,0.0000000,0.0000000,0.3682348,0.0000000,0.0000000,0.0174090,0.0174090,0.0000000,0.0000000,0.0010196,0.0000000,0.0000000,0.0000000,0.0174090,0.0000000,0.0000000,0.0010196,0.0000000,0.0000000,0.0000000,0.0174090,0.0000000,0.0000000,0.0010196
32.8008550,1.0502001,,-0.9726832,-0.2321186,0.0001404,0.0028880,-0.0001887,-0.0019994,0.0015061,,,,1.6470766,-6.8448272,-16.9743748,0.0000000,0.0000000,0.0000000,0.0210040,0.3689661,0.0000000,0.0000000,0.0174304,0.0000000,0.0000000,0.0000000,0.3689661,0.0000000,0.0000000,0.0174304,0.0000000,0.0000000,0.0000000,0.3689661,0.0000000,0.0000000,0.0174304,0.0174304,0.0000000,0.0000000,0.0010196,0.0000000,0.0000000,0.0000000,0.0174304,0.0000000,0.0000000,0.0010196,0.0000000,0.0000000,0.0000000,0.0174304,0.0000000,0.0000000,0.0010196
32.8204550,1.0000501,,-0.9726832,-0.2321186,0.0001230,0.0028828,0.0049563,0.0006101,0.0000130,,,,1.6470766,-6.8448272,-16.9743748,0.0000000,0.0000000,0.0000000,0.0200010,0.3696634,0.0000000,0.0000000,0.0174508,0.0000000,0.0000000,0.0000000,0.3696634,0.0000000,0.0000000,0.0174508,0.0000000,0.0000000,0.0000000,0.3696634,0.0000000,0.0000000,0.0174508,0.0174508,0.0000000,0.0000000,0.0010196,0.0000000,0.0000000,0.0000000,0.0174508,0.0000000,0.0000000,0.0010196,0.0000000,0.0000000,0.0000000,0.0174508,0.0000000,0.0000000,0.0010196
32.8415910,1.0498501,,-0.9726832,-0.2321186,0.0001398,0.0028938,0.0014711,0.0017089,-0.0004894,,,,1.6470766,-6.8448272,-16.9743748,0.0000000,0.0000000,0.0000000,0.0209970,0.3703962,0.0000000,0.0000000,0.0174722,0.0000000,0.0000000,0.0000000,0.3703962,0.0000000,0.0000000,0.0174722,0.0000000,0.0000000,0.0000000,0.3703962,0.0000000,0.0000000,0.0174722,0.0174722,0.0000000,0.0000000,0.0010196,0.0000000,0.0000000,0.0000000,0.0174722,0.0000000,0.0000000,0.0010196,0.0000000,0.0000000,0.0000000,0.0174722,0.0000000,0.0000000,0.0010196
32.8625540,1.0500000,,-0.9726832,-0.2321187,0.0001174,0.0028851,0.0011399,0.0039215,0.0017008,,,,1.6470766,-6.8448272,-16.9743748,0.0000000,0.0000000,0.0000000,0.0210000,0.3711300,0.0000000,0.0000000,0.0174936,0.0000000,0.0000000,0.0000000,0.3711300,0.0000000,0.0000000,0.0174936,0.0000000,0.0000000,0.0000000,0.3711300,0.0000000,0.0000000,0.0174936,0.0174936,0.0000000,0.0000000,0.0010196,0.0000000,0.0000000,0.0000000,0.0174936,0.0000000,0.0000000,0.0010196,0.0000000,0.0000000,0.0000000,0.0174936,0.0000000,0.0000000,0.0010196
32.8783560,,1.0000401,-0.9726832,-0.2321187,0.0001174,0.0028851,,,,0.0000000,0.0000000,0.0000000,1.6470766,-6.8448272,-16.9743748,0.0000000,0.0000000,0.0000000,0.1000040,0.3662539,0.0000000,0.0000000,0.0172637,0.0000000,0.0000000,0.0000000,0.3662539,0.0000000,0.0000000,0.0172637,0.0000000,0.0000000,0.0000000,0.3662539,0.0000000,0.0000000,0.0172637,0.0172637,0.0000000,0.0000000,0.0010088,0.0000000,0.0000000,0.0000000,0.0172637,0.0000000,0.0000000,0.0010088,0.0000000,0.0000000,0.0000000,0.0172637,0.0000000,0.0000000,0.0010088
32.8922550,1.0999000,,-0.9726832,-0.2321186,0.0001248,0.0029019,-0.0055870,-0.0061493,0.0025517,,,,1.6470766,-6.8448272,-16.9743748,0.0000000,0.0000000,0.0000000,0.0219980,0.3670135,0.0000000,0.0000000,0.0172859,0.0000000,0.0000000,0.0000000,0.3670135,0.0000000,0.0000000,0.0172859,0.0000000,0.0000000,0.0000000,0.3670135,0.0000000,0.0000000,0.0172859,0.0172859,0.0000000,0.0000000,0.0010088,0.0000000,0.0000000,0.0000000,0.0172859,0.0000000,0.0000000,0.0010088,0.0000000,0.0000000,0.0000000,0.0172859,0.0000000,0.0000000,0.0010088
32.9058800,1.0505000,,-0.9726831,-0.2321186,0.0001235,0.0029155,0.0017765,-0.0006790,0.0049304,,,,1.6470766,-6.8448272,-16.9743748,0.0000000,0.0000000,0.0000000,0.0210100,0.3677398,0.0000000,0.0000000,0.0173071,0.0000000,0.0000000,0.0000000,0.3677398,0.0000000,0.0000000,0.0173071,0.0000000,0.0000000,0.0000000,0.3677398,0.0000000,0.0000000,0.0173071,0.0173071,0.0000000,0.0000000,0.0010088,0.0000000,0.0000000,0.0000000,0.0173071,0.0000000,0.0000000,0.0010088,0.0000000,0.0000000,0.0000000,0.0173071,0.0000000,0.0000000,0.0010088
32.9254720,0.9997500,,-0.9726831,-0.2321186,0.0001279,0.0029347,0.0052218,-0.0067101,0.0034341,,,,1.6470766,-6.8448272,-16.9743748,0.0000000,0.0000000,0.0000000,0.0199950,0.3684319,0.0000000,0.0000000,0.0173273,0.0000000,0.0000000,0.0000000,0.3684319,0.0000000,0.0000000,0.0173273,0.0000000,0.0000000,0.0000000,0.3684319,0.0000000,0.0000000,0.0173273,0.0173273,0.0000000,0.0000000,0.0010088,0.0000000,0.0000000,0.0000000,0.0173273,0.0000000,0.0000000,0.0010088,0.0000000,0.0000000,0.0000000,0.0173273,0.0000000,0.0000000,0.0010088
32.9466050,1.0498501,,-0.9726830,-0.2321186,0.0001184,0.0029540,0.0034959,-0.0045834,0.0004887,,,,1.6470766,-6.8448272,-16.9743748,0.0000000,0.0000000,0.0000000,0.0209970,0.3691595,0.0000000,0.0000000,0.0173485,0.0000000,0.0000000,0.0000000,0.3691595,0.0000000,0.0000000,0.0173485,0.0000000,0.0000000,0.0000000,0.3691595,0.0000000,0.0000000,0.0173485,0.0173485,0.0000000,0.0000000,0.0010088,0.0000000,0.0000000,0.0000000,0.0173485,0.0000000,0.0000000,0.0010088,0.0000000,0.0000000,0.0000000,0.0173485,0.0000000,0.0000000,0.0010088
32.9676720,1.0500000,,-0.9726830,-0.2321187,0.0000936,0.0029800,0.0045403,-0.0054503,-0.0065992,,,,1.6470766,-6.8448272,-16.9743748,0.0000000,0.0000000,0.0000000,0.0210000,0.3698882,0.0000000,0.0000000,0.0173697,0.0000000,0.0000000,0.0000000,0.3698882,0.0000000,0.0000000,0.0173697,0.0000000,0.0000000,0.0000000,0.3698882,0.0000000,0.0000000,0.0173697,0.0173697,0.0000000,0.0000000,0.0010088,0.0000000,0.0000000,0.0000000,0.0173697,0.0000000,0.0000000,0.0010088,0.0000000,0.0000000,0.0000000,0.0173697,0.0000000,0.0000000,0.0010088
32.9834410,,1.0199499,-0.9726830,-0.2321187,0.0000936,0.0029800,,,,0.0000000,0.0000000,0.0000000,1.6470766,-6.8448272,-16.9743748,0.0000000,0.0000000,0.0000000,0.1019950,0.3650444,0.0000000,0.0000000,0.0171422,0.0000000,0.0000000,0.0000000,0.3650444,0.0000000,0.0000000,0.0171422,0.0000000,0.0000000,0.0000000,0.3650444,0.0000000,0.0000000,0.0171422,0.0171422,0.0000000,0.0000000,0.0009981,0.0000000,0.0000000,0.0000000,0.0171422,0.0000000,0.0000000,0.0009981,0.0000000,0.0000000,0.0000000,0.0171422,0.0000000,0.0000000,0.0009981
32.9973490,1.0999000,,-0.9726829,-0.2321187,0.0000875,0.0029949,0.0001873,-0.0075850,-0.0055045,,,,1.6470766,-6.8448272,-16.9743748,0.0000000,0.0000000,0.0000000,0.0219980,0.3657986,0.0000000,0.0000000,0.0171642,0.0000000,0.0000000,0.0000000,0.3657986,0.0000000,0.0000000,0.0171642,0.0000000,0.0000000,0.0000000,0.3657986,0.0000000,0.0000000,0.0171642,0.0171642,0.0000000,0.0000000,0.0009981,0.0000000,0.0000000,0.0000000,0.0171642,0.0000000,0.0000000,0.0009981,0.0000000,0.0000000,0.0000000,0.0171642,0.0000000,0.0000000,0.0009981
33.0108760,1.0502001,,-0.9726828,-0.2321187,0.0000942,0.0030119,0.0016882,-0.0032585,-0.0015392,,,,1.6470766,-6.8448272,-16.9743748,0.0000000,0.0000000,0.0000000,0.0210040,0.3665196,0.0000000,0.0000000,0.0171851,0.0000000,0.0000000,0.0000000,0.3665196,0.0000000,0.0000000,0.0171851,0.0000000,0.0000000,0.0000000,0.3665196,0.0000000,0.0000000,0.0171851,0.0171851,0.0000000,0.0000000,0.0009981,0.0000000,0.0000000,0.0000000,0.0171851,0.0000000,0.0000000,0.0009981,0.0000000,0.0000000,0.0000000,0.0171851,0.0000000,0.0000000,0.0009981
33.0304870,1.0000000,,-0.9726828,-0.2321186,0.0001114,0.0030215,-0.0011929,0.0037953,0.0026408,,,,1.6470766,-6.8448272,-16.9743748,0.0000000,0.0000000,0.0000000,0.0200000,0.3672070,0.0000000,0.0000000,0.0172051,0.0000000,0.0000000,0.0000000,0.3672070,0.0000000,0.0000000,0.0172051,0.0000000,0.0000000,0.0000000,0.3672070,0.0000000,0.0000000,0.0172051,0.0172051,0.0000000,0.0000000,0.0009981,0.0000000,0.0000000,0.0000000,0.0172051,0.0000000,0.0000000,0.0009981,0.0000000,0.0000000,0.0000000,0.0172051,0.0000000,0.0000000,0.0009981
33.0515760,1.0498999,,-0.9726828,-0.2321185,0.0001380,0.0030258,-0.0016264,0.0029352,0.0025334,,,,1.6470766,-6.8448272,-16.9743748,0.0000000,0.0000000,0.0000000,0.0209980,0.3679296,0.0000000,0.0000000,0.0172260,0.0000000,0.0000000,0.0000000,0.3679296,0.0000000,0.0000000,0.0172260,0.0000000,0.0000000,0.0000000,0.3679296,0.0000000,0.0000000,0.0172260,0.0172260,0.0000000,0.0000000,0.0009981,0.0000000,0.0000000,0.0000000,0.0172260,0.0000000,0.0000000,0.0009981,0.0000000,0.0000000,0.0000000,0.0172260,0.0000000,0.0000000,0.0009981
33.0726500,,1.0099900,-0.9726829,-0.2321185,0.0001375,0.0029978,,,,0.0000000,0.0000000,0.0000000,1.6470766,-6.8448272,-16.9743748,0.0000000,0.0000000,0.0000000,0.1009990,0.3631367,0.0000000,0.0000000,0.0170016,0.0000000,0.0000000,0.0000000,0.3631367,0.0000000,0.0000000,0.0170016,0.0000000,0.0000000,0.0000000,0.3631367,0.0000000,0.0000000,0.0170016,0.0170016,0.0000000,0.0000000,0.0009876,0.0000000,0.0000000,0.0000000,0.0170016,0.0000000,0.0000000,0.0009876,0.0000000,0.0000000,0.0000000,0.0170016,0.0000000,0.0000000,0.0009876
33.0864280,1.1003000,,-0.9726829,-0.2321185,0.0001375,0.0029978,0.0035203,0.0034131,0.0029681,,,,1.6470766,-6.8448272,-16.9743748,0.0000000,0.0000000,0.0000000,0.0220060,0.3638850,0.0000000,0.0000000,0.0170234,0.0000000,0.0000000,0.0000000,0.3638850,0.0000000,0.0000000,0.0170234,0.0000000,0.0000000,0.0000000,0.3638850,0.0000000,0.0000000,0.0170234,0.0170234,0.0000000,0.0000000,0.0009876,0.0000000,0.0000000,0.0000000,0.0170234,0.0000000,0.0000000,0.0009876,0.0000000,0.0000000,0.0000000,0.0170234,0.0000000,0.0000000,0.0009876
33.0997130,1.2995501,,-0.9726830,-0.2321186,0.0001145,0.0029826,0.0060479,0.0029120,0.0066034,,,,1.6470766,-6.8448272,-16.9743748,0.0000000,0.0000000,0.0000000,0.0259910,0.3647699,0.0000000,0.0000000,0.0170490,0.0000000,0.0000000,0.0000000,0.3647699,0.0000000,0.0000000,0.0170490,0.0000000,0.0000000,0.0000000,0.3647699,0.0000000,0.0000000,0.0170490,0.0170490,0.0000000,0.0000000,0.0009876,0.0000000,0.0000000,0.0000000,0.0170490,0.0000000,0.0000000,0.0009876,0.0000000,0.0000000,0.0000000,0.0170490,0.0000000,0.0000000,0.0009876
33.1200100,1.0001000,,-0.9726828,-0.2321187,0.0000992,0.0030072,0.0099743,-0.0038693,0.0091534,,,,1.6470766,-6.8448272,-16.9743748,0.0000000,0.0000000,0.0000000,0.0200020,0.3654519,0.0000000,0.0000000,0.0170688,0.0000000,0.0000000,0.0000000,0.3654519,0.0000000,0.0000000,0.0170688,0.0000000,0.0000000,0.0000000,0.3654519,0.0000000,0.0000000,0.0170688,0.0170688,0.0000000,0.0000000,0.0009876,0.0000000,0.0000000,0.0000000,0.0170688,0.0000000,0.0000000,0.0009876,0.0000000,0.0000000,0.0000000,0.0170688,0.0000000,0.0000000,0.0009876
33.1396820,0.9999000,,-0.9726827,-0.2321187,0.0000773,0.0030371,0.0097021,-0.0043074,0.0009070,,,,1.6470766,-6.8448272,-16.9743748,0.0000000,0.0000000,0.0000000,0.0199980,0.3661346,0.0000000,0.0000000,0.0170886,0.0000000,0.0000000,0.0000000,0.3661346,0.0000000,0.0000000,0.0170886,0.0000000,0.0000000,0.0000000,0.3661346,0.0000000,0.0000000,0.0170886,0.0170886,0.0000000,0.0000000,0.0009876,0.0000000,0.0000000,0.0000000,0.0170886,0.0000000,0.0000000,0.0009876,0.0000000,0.0000000,0.0000000,0.0170886,0.0000000,0.0000000,0.0009876
33.1596960,1.0001000,,-0.9726827,-0.2321188,0.0000568,0.0030566,0.0105273,-0.0003684,0.0019107,,,,1.6470766,-6.8448272,-16.9743748,0.0000000,0.0000000,0.0000000,0.0200020,0.3668182,0.0000000,0.0000000,0.0171083,0.0000000,0.0000000,0.0000000,0.3668182,0.0000000,0.0000000,0.0171083,0.0000000,0.0000000,0.0000000,0.3668182,0.0000000,0.0000000,0.0171083,0.0171083,0.0000000,0.0000000,0.0009876,0.0000000,0.0000000,0.0000000,0.0171083,0.0000000,0.0000000,0.0009876,0.0000000,0.0000000,0.0000000,0.0171083,0.0000000,0.0000000,0.0009876
33.1757480,,1.0000600,-0.9726827,-0.2321188,0.0000568,0.0030566,,,,0.0000000,0.0000000,0.0000000,1.6470766,-6.8448272,-16.9743748,0.0000000,0.0000000,0.0000000,0.1000060,0.3620540,0.0000000,0.0000000,0.0168861,0.0000000,0.0000000,0.0000000,0.3620540,0.0000000,0.0000000,0.0168861,0.0000000,0.0000000,0.0000000,0.3620540,0.0000000,0.0000000,0.0168861,0.0168861,0.0000000,0.0000000,0.0009773,0.0000000,0.0000000,0.0000000,0.0168861,0.0000000,0.0000000,0.0009773,0.0000000,0.0000000,0.0000000,0.0168861,0.0000000,0.0000000,0.0009773
33.1897220,0.9999000,,-0.9726827,-0.2321188,0.0000553,0.0030570,0.0004571,-0.0032970,0.0063188,,,,1.6470766,-6.8448272,-16.9743748,0.0000000,0.0000000,0.0000000,0.0199980,0.3627294,0.0000000,0.0000000,0.0169057,0.0000000,0.0000000,0.0000000,0.3627294,0.0000000,0.0000000,0.0169057,0.0000000,0.0000000,0.0000000,0.3627294,0.0000000,0.0000000,0.0169057,0.0169057,0.0000000,0.0000000,0.0009773,0.0000000,0.0000000,0.0000000,0.0169057,0.0000000,0.0000000,0.0009773,0.0000000,0.0000000,0.0000000,0.0169057,0.0000000,0.0000000,0.0009773
33.2024980,1.1500000,,-0.9726827,-0.2321188,0.0000625,0.0030454,0.0015485,-0.0008779,-0.0022193,,,,1.6470766,-6.8448272,-16.9743748,0.0000000,0.0000000,0.0000000,0.0230000,0.3635070,0.0000000,0.0000000,0.0169281,0.0000000,0.0000000,0.0000000,0.3635070,0.0000000,0.0000000,0.0169281,0.0000000,0.0000000,0.0000000,0.3635070,0.0000000,0.0000000,0.0169281,0.0169281,0.0000000,0.0000000,0.0009773,0.0000000,0.0000000,0.0000000,0.0169281,0.0000000,0.0000000,0.0009773,0.0000000,0.0000000,0.0000000,0.0169281,0.0000000,0.0000000,0.0009773
33.2237850,1.0504500,,-0.9726827,-0.2321187,0.0000683,0.0030640,0.0047720,-0.0025447,0.0010800,,,,1.6470766,-6.8448272,-16.9743748,0.0000000,0.0000000,0.0000000,0.0210090,0.3642183,0.0000000,0.0000000,0.0169487,0.0000000,0.0000000,0.0000000,0.3642183,0.0000000,0.0000000,0.0169487,0.0000000,0.0000000,0.0000000,0.3642183,0.0000000,0.0000000,0.0169487,0.0169487,0.0000000,0.0000000,0.0009773,0.0000000,0.0000000,0.0000000,0.0169487,0.0000000,0.0000000,0.0009773,0.0000000,0.0000000,0.0000000,0.0169487,0.0000000,0.0000000,0.0009773
33.2436720,0.9996500,,-0.9726826,-0.2321187,0.0000763,0.0030736,-0.0002003,0.0002841,-0.0016649,,,,1.6470766,-6.8448272,-16.9743748,0.0000000,0.0000000,0.0000000,0.0199930,0.3648960,0.0000000,0.0000000,0.0169682,0.0000000,0.0000000,0.0000000,0.3648960,0.0000000,0.0000000,0.0169682,0.0000000,0.0000000,0.0000000,0.3648960,0.0000000,0.0000000,0.0169682,0.0169682,0.0000000,0.0000000,0.0009773,0.0000000,0.0000000,0.0000000,0.0169682,0.0000000,0.0000000,0.0009773,0.0000000,0.0000000,0.0000000,0.0169682,0.0000000,0.0000000,0.0009773
33.2637350,1.0000000,,-0.9726826,-0.2321186,0.0001122,0.0030941,0.0017690,-0.0089980,-0.0064553,,,,1.6470766,-6.8448272,-16.9743748,0.0000000,0.0000000,0.0000000,0.0200000,0.3655747,0.0000000,0.0000000,0.0169877,0.0000000,0.0000000,0.0000000,0.3655747,0.0000000,0.0000000,0.0169877,0.0000000,0.0000000,0.0000000,0.3655747,0.0000000,0.0000000,0.0169877,0.0169877,0.0000000,0.0000000,0.0009773,0.0000000,0.0000000,0.0000000,0.0169877,0.0000000,0.0000000,0.0009773,0.0000000,0.0000000,0.0000000,0.0169877,0.0000000,0.0000000,0.0009773
33.2795670,,1.0200800,-0.9726826,-0.2321186,0.0001122,0.0030941,,,,0.0000000,0.0000000,0.0000000,1.6470766,-6.8448272,-16.9743748,0.0000000,0.0000000,0.0000000,0.1020080,0.3608426,0.0000000,0.0000000,0.0167678,0.0000000,0.0000000,0.0000000,0.3608426,0.0000000,0.0000000,0.0167678,0.0000000,0.0000000,0.0000000,0.3608426,0.0000000,0.0000000,0.0167678,0.0167679,0.0000000,0.0000000,0.0009671,0.0000000,0.0000000,0.0000000,0.0167679,0.0000000,0.0000000,0.0009671,0.0000000,0.0000000,0.0000000,0.0167679,0.0000000,0.0000000,0.0009671
33.2933630,1.0006001,,-0.9726826,-0.2321186,0.0001127,0.0031031,0.0022273,-0.0029044,-0.0032353,,,,1.6470766,-6.8448272,-16.9743748,0.0000000,0.0000000,0.0000000,0.0200120,0.3615137,0.0000000,0.0000000,0.0167872,0.0000000,0.0000000,0.0000000,0.3615137,0.0000000,0.0000000,0.0167872,0.0000000,0.0000000,0.0000000,0.3615137,0.0000000,0.0000000,0.0167872,0.0167872,0.0000000,0.0000000,0.0009671,0.0000000,0.0000000,0.0000000,0.0167872,0.0000000,0.0000000,0.0009671,0.0000000,0.0000000,0.0000000,0.0167872,0.0000000,0.0000000,0.0009671
33.3067340,1.1493001,,-0.9726825,-0.2321187,0.0000863,0.0031036,-0.0017398,-0.0062282,-0.0045550,,,,1.6470766,-6.8448272,-16.9743748,0.0000000,0.0000000,0.0000000,0.0229860,0.3622854,0.0000000,0.0000000,0.0168094,0.0000000,0.0000000,0.0000000,0.3622854,0.0000000,0.0000000,0.0168094,0.0000000,0.0000000,0.0000000,0.3622854,0.0000000,0.0000000,0.0168094,0.0168094,0.0000000,0.0000000,0.0009671,0.0000000,0.0000000,0.0000000,0.0168094,0.0000000,0.0000000,0.0009671,0.0000000,0.0000000,0.0000000,0.0168094,0.0000000,0.0000000,0.0009671
33.3276900,1.0504500,,-0.9726826,-0.2321186,0.0001063,0.0030878,-0.0031663,0.0035692,0.0043067,,,,1.6470766,-6.8448272,-16.9743748,0.0000000,0.0000000,0.0000000,0.0210090,0.3629917,0.0000000,0.0000000,0.0168297,0.0000000,0.0000000,0.0000000,0.3629917,0.0000000,0.0000000,0.0168297,0.0000000,0.0000000,0.0000000,0.3629917,0.0000000,0.0000000,0.0168297,0.0168297,0.0000000,0.0000000,0.0009671,0.0000000,0.0000000,0.0000000,0.0168297,0.0000000,0.0000000,0.0009671,0.0000000,0.0000000,0.0000000,0.0168297,0.0000000,0.0000000,0.0009671
33.3478920,0.9995500,,-0.9726826,-0.2321185,0.0001291,0.0030853,-0.0016595,-0.0000617,0.0055637,,,,1.6470766,-6.8448272,-16.9743748,0.0000000,0.0000000,0.0000000,0.0199910,0.3636646,0.0000000,0.0000000,0.0168491,0.0000000,0.0000000,0.0000000,0.3636646,0.0000000,0.0000000,0.0168491,0.0000000,0.0000000,0.0000000,0.3636646,0.0000000,0.0000000,0.0168491,0.0168491,0.0000000,0.0000000,0.0009671,0.0000000,0.0000000,0.0000000,0.0168491,0.0000000,0.0000000,0.0009671,0.0000000,0.0000000,0.0000000,0.0168491,0.0000000,0.0000000,0.0009671
33.3676060,1.0004500,,-0.9726826,-0.2321185,0.0001367,0.0030912,0.0029926,-0.0050357,0.0079012,,,,1.6470766,-6.8448272,-16.9743748,0.0000000,0.0000000,0.0000000,0.0200090,0.3643389,0.0000000,0.0000000,0.0168684,0.0000000,0.0000000,0.0000000,0.3643389,0.0000000,0.0000000,0.0168684,0.0000000,0.0000000,0.0000000,0.3643389,0.0000000,0.0000000,0.0168684,0.0168684,0.0000000,0.0000000,0.0009671,0.0000000,0.0000000,0.0000000,0.0168684,0.0000000,0.0000000,0.0009671,0.0000000,0.0000000,0.0000000,0.0168684,0.0000000,0.0000000,0.0009671
33.3829540,,1.0198699,-0.9726826,-0.2321185,0.0001367,0.0030912,,,,0.0000000,0.0000000,0.0000000,1.6470766,-6.8448272,-16.9743748,0.0000000,0.0000000,0.0000000,0.1019870,0.3596385,0.0000000,0.0000000,0.0166508,0.0000000,0.0000000,0.0000000,0.3596385,0.0000000,0.0000000,0.0166508,0.0000000,0.0000000,0.0000000,0.3596385,0.0000000,0.0000000,0.0166508,0.0166508,0.0000000,0.0000000,0.0009570,0.0000000,0.0000000,0.0000000,0.0166508,0.0000000,0.0000000,0.0009570,0.0000000,0.0000000,0.0000000,0.0166508,0.0000000,0.0000000,0.0009570
33.3957900,1.0999500,,-0.9726826,-0.2321185,0.0001504,0.0030885,-0.0019827,-0.0016710,0.0071168,,,,1.6470766,-6.8448272,-16.9743748,0.0000000,0.0000000,0.0000000,0.0219990,0.3603711,0.0000000,0.0000000,0.0166719,0.0000000,0.0000000,0.0000000,0.3603711,0.0000000,0.0000000,0.0166719,0.0000000,0.0000000,0.0000000,0.3603711,0.0000000,0.0000000,0.0166719,0.0166719,0.0000000,0.0000000,0.0009570,0.0000000,0.0000000,0.0000000,0.0166719,0.0000000,0.0000000,0.0009570,0.0000000,0.0000000,0.0000000,0.0166719,0.0000000,0.0000000,0.0009570
33.4108040,1.0500000,,-0.9726827,-0.2321184,0.0001755,0.0030738,-0.0068736,0.0014609,0.0042832,,,,1.6470766,-6.8448272,-16.9743748,0.0000000,0.0000000,0.0000000,0.0210000,0.3610713,0.0000000,0.0000000,0.0166920,0.0000000,0.0000000,0.0000000,0.3610713,0.0000000,0.0000000,0.0166920,0.0000000,0.0000000,0.0000000,0.3610713,0.0000000,0.0000000,0.0166920,0.0166920,0.0000000,0.0000000,0.0009570,0.0000000,0.0000000,0.0000000,0.0166920,0.0000000,0.0000000,0.0009570,0.0000000,0.0000000,0.0000000,0.0166920,0.0000000,0.0000000,0.0009570
33.4317480,1.0497501,,-0.9726827,-0.2321183,0.0002122,0.0030612,-0.0087850,0.0032711,0.0018898,,,,1.6470766,-6.8448272,-16.9743748,0.0000000,0.0000000,0.0000000,0.0209950,0.3617721,0.0000000,0.0000000,0.0167121,0.0000000,0.0000000,0.0000000,0.3617721,0.0000000,0.0000000,0.0167121,0.0000000,0.0000000,0.0000000,0.3617721,0.0000000,0.0000000,0.0167121,0.0167121,0.0000000,0.0000000,0.0009570,0.0000000,0.0000000,0.0000000,0.0167121,0.0000000,0.0000000,0.0009570,0.0000000,0.0000000,0.0000000,0.0167121,0.0000000,0.0000000,0.0009570
33.4519400,1.0003500,,-0.9726827,-0.2321183,0.0002097,0.0030510,0.0012075,-0.0043917,0.0014256,,,,1.6470766,-6.8448272,-16.9743748,0.0000000,0.0000000,0.0000000,0.0200070,0.3624409,0.0000000,0.0000000,0.0167312,0.0000000,0.0000000,0.0000000,0.3624409,0.0000000,0.0000000,0.0167312,0.0000000,0.0000000,0.0000000,0.3624409,0.0000000,0.0000000,0.0167312,0.0167312,0.0000000,0.0000000,0.0009570,0.0000000,0.0000000,0.0000000,0.0167312,0.0000000,0.0000000,0.0009570,0.0000000,0.0000000,0.0000000,0.0167312,0.0000000,0.0000000,0.0009570
33.4718150,0.9995000,,-0.9726827,-0.2321184,0.0002084,0.0030430,-0.0020894,-0.0026078,-0.0051542,,,,1.6470766,-6.8448272,-16.9743748,0.0000000,0.0000000,0.0000000,0.0199900,0.3631098,0.0000000,0.0000000,0.0167503,0.0000000,0.0000000,0.0000000,0.3631098,0.0000000,0.0000000,0.0167503,0.0000000,0.0000000,0.0000000,0.3631098,0.0000000,0.0000000,0.0167503,0.0167503,0.0000000,0.0000000,0.0009570,0.0000000,0.0000000,0.0000000,0.0167503,0.0000000,0.0000000,0.0009570,0.0000000,0.0000000,0.0000000,0.0167503,0.0000000,0.0000000,0.0009570
33.4875940,,1.0200100,-0.9726827,-0.2321184,0.0002084,0.0030430,,,,0.0000000,0.0000000,0.0000000,1.6470766,-6.8448272,-16.9743748,0.0000000,0.0000000,0.0000000,0.1020010,0.3584408,0.0000000,0.0000000,0.0165350,0.0000000,0.0000000,0.0000000,0.3584408,0.0000000,0.0000000,0.0165350,0.0000000,0.0000000,0.0000000,0.3584408,0.0000000,0.0000000,0.0165350,0.0165350,0.0000000,0.0000000,0.0009471,0.0000000,0.0000000,0.0000000,0.0165350,0.0000000,0.0000000,0.0009471,0.0000000,0.0000000,0.0000000,0.0165350,0.0000000,0.0000000,0.0009471
33.5015870,1.0002999,,-0.9726828,-0.2321183,0.0002230,0.0030156,-0.0019908,-0.0041955,-0.0016082,,,,1.6470766,-6.8448272,-16.9743748,0.0000000,0.0000000,0.0000000,0.0200060,0.3591024,0.0000000,0.0000000,0.0165539,0.0000000,0.0000000,0.0000000,0.3591024,0.0000000,0.0000000,0.0165539,0.0000000,0.0000000,0.0000000,0.3591024,0.0000000,0.0000000,0.0165539,0.0165539,0.0000000,0.0000000,0.0009471,0.0000000,0.0000000,0.0000000,0.0165539,0.0000000,0.0000000,0.0009471,0.0000000,0.0000000,0.0000000,0.0165539,0.0000000,0.0000000,0.0009471
33.5147510,1.1497000,,-0.9726828,-0.2321184,0.0001928,0.0030113,0.0016444,-0.0035244,-0.0064270,,,,1.6470766,-6.8448272,-16.9743748,0.0000000,0.0000000,0.0000000,0.0229940,0.3598637,0.0000000,0.0000000,0.0165757,0.0000000,0.0000000,0.0000000,0.3598637,0.0000000,0.0000000,0.0165757,0.0000000,0.0000000,0.0000000,0.3598637,0.0000000,0.0000000,0.0165757,0.0165757,0.0000000,0.0000000,0.0009471,0.0000000,0.0000000,0.0000000,0.0165757,0.0000000,0.0000000,0.0009471,0.0000000,0.0000000,0.0000000,0.0165757,0.0000000,0.0000000,0.0009471
33.5355630,1.0501500,,-0.9726828,-0.2321184,0.0001885,0.0030232,0.0042096,-0.0048674,-0.0049301,,,,1.6470766,-6.8448272,-16.9743748,0.0000000,0.0000000,0.0000000,0.0210030,0.3605599,0.0000000,0.0000000,0.0165956,0.0000000,0.0000000,0.0000000,0.3605599,0.0000000,0.0000000,0.0165956,0.0000000,0.0000000,0.0000000,0.3605599,0.0000000,0.0000000,0.0165956,0.0165956,0.0000000,0.0000000,0.0009471,0.0000000,0.0000000,0.0000000,0.0165956,0.0000000,0.0000000,0.0009471,0.0000000,0.0000000,0.0000000,0.0165956,0.0000000,0.0000000,0.0009471
33.5569240,1.0506999,,-0.9726827,-0.2321184,0.0001796,0.0030491,0.0040045,-0.0067214,0.0002129,,,,1.6470766,-6.8448272,-16.9743748,0.0000000,0.0000000,0.0000000,0.0210140,0.3612574,0.0000000,0.0000000,0.0166155,0.0000000,0.0000000,0.0000000,0.3612574,0.0000000,0.0000000,0.0166155,0.0000000,0.0000000,0.0000000,0.3612574,0.0000000,0.0000000,0.0166155,0.0166155,0.0000000,0.0000000,0.0009471,0.0000000,0.0000000,0.0000000,0.0166155,0.0000000,0.0000000,0.0009471,0.0000000,0.0000000,0.0000000,0.0166155,0.0000000,0.0000000,0.0009471
33.5787380,,0.9999800,-0.9726827,-0.2321184,0.0001822,0.0030541,,,,0.0000000,0.0000000,0.0000000,1.6470766,-6.8448272,-16.9743748,0.0000000,0.0000000,0.0000000,0.0999980,0.3566356,0.0000000,0.0000000,0.0164029,0.0000000,0.0000000,0.0000000,0.3566356,0.0000000,0.0000000,0.0164029,0.0000000,0.0000000,0.0000000,0.3566356,0.0000000,0.0000000,0.0164029,0.0164029,0.0000000,0.0000000,0.0009373,0.0000000,0.0000000,0.0000000,0.0164029,0.0000000,0.0000000,0.0009373,0.0000000,0.0000000,0.0000000,0.0164029,0.0000000,0.0000000,0.0009373
33.5923720,1.0500000,,-0.9726827,-0.2321184,0.0001822,0.0030541,0.0031848,-0.0057106,0.0018078,,,,1.6470766,-6.8448272,-16.9743748,0.0000000,0.0000000,0.0000000,0.0210000,0.3573245,0.0000000,0.0000000,0.0164226,0.0000000,0.0000000,0.0000000,0.3573245,0.0000000,0.0000000,0.0164226,0.0000000,0.0000000,0.0000000,0.3573245,0.0000000,0.0000000,0.0164226,0.0164226,0.0000000,0.0000000,0.0009373,0.0000000,0.0000000,0.0000000,0.0164226,0.0000000,0.0000000,0.0009373,0.0000000,0.0000000,0.0000000,0.0164226,0.0000000,0.0000000,0.0009373
33.6058620,1.3996500,,-0.9726826,-0.2321185,0.0001640,0.0030960,0.0010126,-0.0014744,0.0008963,,,,1.6470766,-6.8448272,-16.9743748,0.0000000,0.0000000,0.0000000,0.0279930,0.3582440,0.0000000,0.0000000,0.0164488,0.0000000,0.0000000,0.0000000,0.3582440,0.0000000,0.0000000,0.0164488,0.0000000,0.0000000,0.0000000,0.3582440,0.0000000,0.0000000,0.0164488,0.0164488,0.0000000,0.0000000,0.0009373,0.0000000,0.0000000,0.0000000,0.0164488,0.0000000,0.0000000,0.0009373,0.0000000,0.0000000,0.0000000,0.0164488,0.0000000,0.0000000,0.0009373
33.6270560,0.9997500,,-0.9726825,-0.2321185,0.0001497,0.0031168,-0.0022861,-0.0030184,0.0048350,,,,1.6470766,-6.8448272,-16.9743748,0.0000000,0.0000000,0.0000000,0.0199950,0.3589018,0.0000000,0.0000000,0.0164676,0.0000000,0.0000000,0.0000000,0.3589018,0.0000000,0.0000000,0.0164676,0.0000000,0.0000000,0.0000000,0.3589018,0.0000000,0.0000000,0.0164676,0.0164676,0.0000000,0.0000000,0.0009373,0.0000000,0.0000000,0.0000000,0.0164676,0.0000000,0.0000000,0.0009373,0.0000000,0.0000000,0.0000000,0.0164676,0.0000000,0.0000000,0.0009373
33.6457990,1.0000501,,-0.9726825,-0.2321185,0.0001656,0.0031026,-0.0063158,0.0020309,0.0058279,,,,1.6470766,-6.8448272,-16.9743748,0.0000000,0.0000000,0.0000000,0.0200010,0.3595605,0.0000000,0.0000000,0.0164863,0.0000000,0.0000000,0.0000000,0.3595605,0.0000000,0.0000000,0.0164863,0.0000000,0.0000000,0.0000000,0.3595605,0.0000000,0.0000000,0.0164863,0.0164863,0.0000000,0.0000000,0.0009374,0.0000000,0.0000000,0.0000000,0.0164863,0.0000000,0.0000000,0.0009374,0.0000000,0.0000000,0.0000000,0.0164863,0.0000000,0.0000000,0.0009374
33.6657910,1.0001501,,-0.9726825,-0.2321184,0.0001721,0.0031100,0.0021522,-0.0068963,0.0087657,,,,1.6470766,-6.8448272,-16.9743748,0.0000000,0.0000000,0.0000000,0.0200030,0.3602200,0.0000000,0.0000000,0.0165051,0.0000000,0.0000000,0.0000000,0.3602200,0.0000000,0.0000000,0.0165051,0.0000000,0.0000000,0.0000000,0.3602200,0.0000000,0.0000000,0.0165051,0.0165051,0.0000000,0.0000000,0.0009374,0.0000000,0.0000000,0.0000000,0.0165051,0.0000000,0.0000000,0.0009374,0.0000000,0.0000000,0.0000000,0.0165051,0.0000000,0.0000000,0.0009374
33.6815810,,1.0001600,-0.9726825,-0.2321184,0.0001721,0.0031100,,,,0.0000000,0.0000000,0.0000000,1.6470766,-6.8448272,-16.9743748,0.0000000,0.0000000,0.0000000,0.1000160,0.3556246,0.0000000,0.0000000,0.0162945,0.0000000,0.0000000,0.0000000,0.3556246,0.0000000,0.0000000,0.0162945,0.0000000,0.0000000,0.0000000,0.3556246,0.0000000,0.0000000,0.0162945,0.0162945,0.0000000,0.0000000,0.0009277,0.0000000,0.0000000,0.0000000,0.0162945,0.0000000,0.0000000,0.0009277,0.0000000,0.0000000,0.0000000,0.0162945,0.0000000,0.0000000,0.0009277
33.6952210,1.0000501,,-0.9726815,-0.2321230,0.0001490,0.0030975,0.0002445,-0.0048062,0.0033986,,,,1.6470766,-6.8448272,-16.9743748,0.0000000,0.0000000,0.0000000,0.0200010,0.3562764,0.0000000,0.0000000,0.0163131,0.0000000,0.0000000,0.0000000,0.3562764,0.0000000,0.0000000,0.0163131,0.0000000,0.0000000,0.0000000,0.3562764,0.0000000,0.0000000,0.0163131,0.0163131,0.0000000,0.0000000,0.0009277,0.0000000,0.0000000,0.0000000,0.0163131,0.0000000,0.0000000,0.0009277,0.0000000,0.0000000,0.0000000,0.0163131,0.0000000,0.0000000,0.0009277
33.7087580,1.1495000,,-0.9726511,-0.2322510,0.0002049,0.0030324,-0.0122755,0.0103151,-0.0210134,,,,1.6470766,-6.8448272,-16.9743748,0.0000000,0.0000000,0.0000000,0.0229900,0.3570265,0.0000000,0.0000000,0.0163344,0.0000000,0.0000000,0.0000000,0.3570265,0.0000000,0.0000000,0.0163344,0.0000000,0.0000000,0.0000000,0.3570265,0.0000000,0.0000000,0.0163344,0.0163344,0.0000000,0.0000000,0.0009277,0.0000000,0.0000000,0.0000000,0.0163344,0.0000000,0.0000000,0.0009277,0.0000000,0.0000000,0.0000000,0.0163344,0.0000000,0.0000000,0.0009277
33.7287140,1.0001000,,-0.9726310,-0.2323354,0.0002584,0.0030006,-0.0096931,-0.0004272,-0.0070964,,,,1.6470766,-6.8448272,-16.9743748,0.0000000,0.0000000,0.0000000,0.0200020,0.3576799,0.0000000,0.0000000,0.0163529,0.0000000,0.0000000,0.0000000,0.3576799,0.0000000,0.0000000,0.0163529,0.0000000,0.0000000,0.0000000,0.3576799,0.0000000,0.0000000,0.0163529,0.0163529,0.0000000,0.0000000,0.0009277,0.0000000,0.0000000,0.0000000,0.0163529,0.0000000,0.0000000,0.0009277,0.0000000,0.0000000,0.0000000,0.0163529,0.0000000,0.0000000,0.0009277
33.7500470,1.0000000,,-0.9726210,-0.2323776,0.0003096,0.0029863,-0.0103092,-0.0204315,-0.0059972,,,,1.6470766,-6.8448272,-16.9743748,0.0000000,0.0000000,0.0000000,0.0200000,0.3583341,0.0000000,0.0000000,0.0163715,0.0000000,0.0000000,0.0000000,0.3583341,0.0000000,0.0000000,0.0163715,0.0000000,0.0000000,0.0000000,0.3583341,0.0000000,0.0000000,0.0163715,0.0163715,0.0000000,0.0000000,0.0009277,0.0000000,0.0000000,0.0000000,0.0163715,0.0000000,0.0000000,0.0009277,0.0000000,0.0000000,0.0000000,0.0163715,0.0000000,0.0000000,0.0009277
33.7688200,0.9999500,,-0.9726160,-0.2323986,0.0003274,0.0029921,-0.0125932,-0.0118561,0.0048063,,,,1.6470766,-6.8448272,-16.9743748,0.0000000,0.0000000,0.0000000,0.0199990,0.3589889,0.0000000,0.0000000,0.0163900,0.0000000,0.0000000,0.0000000,0.3589889,0.0000000,0.0000000,0.0163900,0.0000000,0.0000000,0.0000000,0.3589889,0.0000000,0.0000000,0.0163900,0.0163900,0.0000000,0.0000000,0.0009277,0.0000000,0.0000000,0.0000000,0.0163900,0.0000000,0.0000000,0.0009277,0.0000000,0.0000000,0.0000000,0.0163900,0.0000000,0.0000000,0.0009277
33.7848110,,0.9998500,-0.9726160,-0.2323986,0.0003274,0.0029921,,,,0.0000000,0.0000000,0.0000000,1.6470766,-6.8448272,-16.9743748,0.0000000,0.0000000,0.0000000,0.0999850,0.3544246,0.0000000,0.0000000,0.0161817,0.0000000,0.0000000,0.0000000,0.3544246,0.0000000,0.0000000,0.0161817,0.0000000,0.0000000,0.0000000,0.3544246,0.0000000,0.0000000,0.0161817,0.0161817,0.0000000,0.0000000,0.0009182,0.0000000,0.0000000,0.0000000,0.0161817,0.0000000,0.0000000,0.0009182,0.0000000,0.0000000,0.0000000,0.0161817,0.0000000,0.0000000,0.0009182
33.7986620,0.9999500,,-0.9726135,-0.2324092,0.0003320,0.0030006,-0.0010476,-0.0139084,-0.0017549,,,,1.6470766,-6.8448272,-16.9743748,0.0000000,0.0000000,0.0000000,0.0199990,0.3550719,0.0000000,0.0000000,0.0162000,0.0000000,0.0000000,0.0000000,0.3550719,0.0000000,0.0000000,0.0162000,0.0000000,0.0000000,0.0000000,0.3550719,0.0000000,0.0000000,0.0162000,0.0162000,0.0000000,0.0000000,0.0009182,0.0000000,0.0000000,0.0000000,0.0162000,0.0000000,0.0000000,0.0009182,0.0000000,0.0000000,0.0000000,0.0162000,0.0000000,0.0000000,0.0009182
33.8116830,1.1500000,,-0.9726122,-0.2324144,0.0003478,0.0029873,0.0064647,-0.0093422,0.0018005,,,,1.6470766,-6.8448272,-16.9743748,0.0000000,0.0000000,0.0000000,0.0230000,0.3558171,0.0000000,0.0000000,0.0162211,0.0000000,0.0000000,0.0000000,0.3558171,0.0000000,0.0000000,0.0162211,0.0000000,0.0000000,0.0000000,0.3558171,0.0000000,0.0000000,0.0162211,0.0162211,0.0000000,0.0000000,0.0009182,0.0000000,0.0000000,0.0000000,0.0162211,0.0000000,0.0000000,0.0009182,0.0000000,0.0000000,0.0000000,0.0162211,0.0000000,0.0000000,0.0009182
33.8314940,1.0001000,,-0.9726114,-0.2324170,0.0003845,0.0030275,0.0058645,-0.0096455,0.0006485,,,,1.6470766,-6.8448272,-16.9743748,0.0000000,0.0000000,0.0000000,0.0200020,0.3564660,0.0000000,0.0000000,0.0162395,0.0000000,0.0000000,0.0000000,0.3564660,0.0000000,0.0000000,0.0162395,0.0000000,0.0000000,0.0000000,0.3564660,0.0000000,0.0000000,0.0162395,0.0162395,0.0000000,0.0000000,0.0009182,0.0000000,0.0000000,0.0000000,0.0162395,0.0000000,0.0000000,0.0009182,0.0000000,0.0000000,0.0000000,0.0162395,0.0000000,0.0000000,0.0009182
33.8515490,1.0008000,,-0.9726110,-0.2324183,0.0003827,0.0030732,0.0111262,-0.0151224,0.0054436,,,,1.6470766,-6.8448272,-16.9743748,0.0000000,0.0000000,0.0000000,0.0200160,0.3571161,0.0000000,0.0000000,0.0162579,0.0000000,0.0000000,0.0000000,0.3571161,0.0000000,0.0000000,0.0162579,0.0000000,0.0000000,0.0000000,0.3571161,0.0000000,0.0000000,0.0162579,0.0162579,0.0000000,0.0000000,0.0009182,0.0000000,0.0000000,0.0000000,0.0162579,0.0000000,0.0000000,0.0009182,0.0000000,0.0000000,0.0000000,0.0162579,0.0000000,0.0000000,0.0009182
33.8726420,1.0492001,,-0.9726107,-0.2324188,0.0004216,0.0030994,-0.0032565,-0.0212560,0.0066204,,,,1.6470766,-6.8448272,-16.9743748,0.0000000,0.0000000,0.0000000,0.0209840,0.3577984,0.0000000,0.0000000,0.0162772,0.0000000,0.0000000,0.0000000,0.3577984,0.0000000,0.0000000,0.0162772,0.0000000,0.0000000,0.0000000,0.3577984,0.0000000,0.0000000,0.0162772,0.0162772,0.0000000,0.0000000,0.0009182,0.0000000,0.0000000,0.0000000,0.0162772,0.0000000,0.0000000,0.0009182,0.0000000,0.0000000,0.0000000,0.0162772,0.0000000,0.0000000,0.0009182
33.8885830,,1.0000700,-0.9726107,-0.2324188,0.0004216,0.0030994,,,,-0.0138767,-0.0070337,-0.0000097,1.6469008,-6.8449163,-16.9743748,-0.0000080,-0.0000041,-0.0000000,0.1000070,0.3532642,0.0000000,0.0000000,0.0160709,0.0000000,0.0000000,0.0000000,0.3532642,0.0000000,0.0000000,0.0160709,0.0000000,0.0000000,0.0000000,0.3532642,0.0000000,0.0000000,0.0160709,0.0160709,0.0000000,0.0000000,0.0009089,0.0000000,0.0000000,0.0000000,0.0160709,0.0000000,0.0000000,0.0009089,0.0000000,0.0000000,0.0000000,0.0160709,0.0000000,0.0000000,0.0009089
33.9027970,1.0999000,,-0.9726150,-0.2324011,0.0004164,0.0031063,-0.0056108,-0.0138476,0.0125799,,,,1.6469008,-6.8449163,-16.9743748,0.0000000,0.0000000,0.0000000,0.0219980,0.3539712,0.0000000,0.0000000,0.0160909,0.0000000,0.0000000,0.0000000,0.3539712,0.0000000,0.0000000,0.0160909,0.0000000,0.0000000,0.0000000,0.3539712,0.0000000,0.0000000,0.0160909,0.0160909,0.0000000,0.0000000,0.0009089,0.0000000,0.0000000,0.0000000,0.0160909,0.0000000,0.0000000,0.0009089,0.0000000,0.0000000,0.0000000,0.0160909,0.0000000,0.0000000,0.0009089
33.9158020,1.0500000,,-0.9726216,-0.2323741,0.0004096,0.0030824,-0.0031182,-0.0040933,0.0211749,,,,1.6469008,-6.8449163,-16.9743748,0.0000000,0.0000000,0.0000000,0.0210000,0.3546471,0.0000000,0.0000000,0.0161100,0.0000000,0.0000000,0.0000000,0.3546471,0.0000000,0.0000000,0.0161100,0.0000000,0.0000000,0.0000000,0.3546471,0.0000000,0.0000000,0.0161100,0.0161100,0.0000000,0.0000000,0.0009089,0.0000000,0.0000000,0.0000000,0.0161100,0.0000000,0.0000000,0.0009089,0.0000000,0.0000000,0.0000000,0.0161100,0.0000000,0.0000000,0.0009089
33.9358490,1.0002000,,-0.9726357,-0.2323152,0.0003558,0.0030485,-0.0009869,-0.0029469,0.0220544,,,,1.6469008,-6.8449163,-16.9743748,0.0000000,0.0000000,0.0000000,0.0200040,0.3552916,0.0000000,0.0000000,0.0161281,0.0000000,0.0000000,0.0000000,0.3552916,0.0000000,0.0000000,0.0161281,0.0000000,0.0000000,0.0000000,0.3552916,0.0000000,0.0000000,0.0161281,0.0161281,0.0000000,0.0000000,0.0009089,0.0000000,0.0000000,0.0000000,0.0161281,0.0000000,0.0000000,0.0009089,0.0000000,0.0000000,0.0000000,0.0161281,0.0000000,0.0000000,0.0009089
33.9557950,1.0001501,,-0.9726428,-0.2322858,0.0003035,0.0030227,-0.0002112,-0.0055781,0.0220059,,,,1.6469008,-6.8449163,-16.9743748,0.0000000,0.0000000,0.0000000,0.0200030,0.3559368,0.0000000,0.0000000,0.0161463,0.0000000,0.0000000,0.0000000,0.3559368,0.0000000,0.0000000,0.0161463,0.0000000,0.0000000,0.0000000,0.3559368,0.0000000,0.0000000,0.0161463,0.0161463,0.0000000,0.0000000,0.0009089,0.0000000,0.0000000,0.0000000,0.0161463,0.0000000,0.0000000,0.0009089,0.0000000,0.0000000,0.0000000,0.0161463,0.0000000,0.0000000,0.0009089
33.9754720,1.0001501,,-0.9726454,-0.2322745,0.0002957,0.0030771,-0.0027453,-0.0174985,0.0175871,,,,1.6469008,-6.8449163,-16.9743748,0.0000000,0.0000000,0.0000000,0.0200030,0.3565828,0.0000000,0.0000000,0.0161645,0.0000000,0.0000000,0.0000000,0.3565828,0.0000000,0.0000000,0.0161645,0.0000000,0.0000000,0.0000000,0.3565828,0.0000000,0.0000000,0.0161645,0.0161645,0.0000000,0.0000000,0.0009089,0.0000000,0.0000000,0.0000000,0.0161645,0.0000000,0.0000000,0.0009089,0.0000000,0.0000000,0.0000000,0.0161645,0.0000000,0.0000000,0.0009089
33.9917780,,0.9999200,-0.9726454,-0.2322745,0.0002957,0.0030771,,,,-0.0349746,-0.0177145,-0.0000335,1.6464590,-6.8451400,-16.9743748,-0.0000200,-0.0000101,-0.0000000,0.0999920,0.3520791,0.0000000,0.0000000,0.0159603,0.0000000,0.0000000,0.0000000,0.3520791,0.0000000,0.0000000,0.0159603,0.0000000,0.0000000,0.0000000,0.3520791,0.0000000,0.0000000,0.0159603,0.0159603,0.0000000,0.0000000,0.0008996,0.0000000,0.0000000,0.0000000,0.0159603,0.0000000,0.0000000,0.0008996,0.0000000,0.0000000,0.0000000,0.0159603,0.0000000,0.0000000,0.0008996
34.0052120,1.0996000,,-0.9726543,-0.2322371,0.0002387,0.0030792,0.0041968,0.0028398,0.0195281,,,,1.6464590,-6.8451400,-16.9743748,0.0000000,0.0000000,0.0000000,0.0219920,0.3527811,0.0000000,0.0000000,0.0159801,0.0000000,0.0000000,0.0000000,0.3527811,0.0000000,0.0000000,0.0159801,0.0000000,0.0000000,0.0000000,0.3527811,0.0000000,0.0000000,0.0159801,0.0159801,0.0000000,0.0000000,0.0008996,0.0000000,0.0000000,0.0000000,0.0159801,0.0000000,0.0000000,0.0008996,0.0000000,0.0000000,0.0000000,0.0159801,0.0000000,0.0000000,0.0008996
34.0188250,1.0498999,,-0.9726495,-0.2322572,0.0002371,0.0031096,0.0074619,-0.0157310,0.0097564,,,,1.6464590,-6.8451400,-16.9743748,0.0000000,0.0000000,0.0000000,0.0209980,0.3534522,0.0000000,0.0000000,0.0159990,0.0000000,0.0000000,0.0000000,0.3534522,0.0000000,0.0000000,0.0159990,0.0000000,0.0000000,0.0000000,0.3534522,0.0000000,0.0000000,0.0159990,0.0159990,0.0000000,0.0000000,0.0008996,0.0000000,0.0000000,0.0000000,0.0159990,0.0000000,0.0000000,0.0008996,0.0000000,0.0000000,0.0000000,0.0159990,0.0000000,0.0000000,0.0008996
34.0386810,1.0001000,,-0.9726539,-0.2322388,0.0002228,0.0030851,0.0051805,0.0115208,-0.0009888,,,,1.6464590,-6.8451400,-16.9743748,0.0000000,0.0000000,0.0000000,0.0200020,0.3540922,0.0000000,0.0000000,0.0160170,0.0000000,0.0000000,0.0000000,0.3540922,0.0000000,0.0000000,0.0160170,0.0000000,0.0000000,0.0000000,0.3540922,0.0000000,0.0000000,0.0160170,0.0160170,0.0000000,0.0000000,0.0008996,0.0000000,0.0000000,0.0000000,0.0160170,0.0000000,0.0000000,0.0008996,0.0000000,0.0000000,0.0000000,0.0160170,0.0000000,0.0000000,0.0008996
34.0586870,1.0005001,,-0.9726605,-0.2322115,0.0001197,0.0030585,0.0019036,-0.0069044,0.0092636,,,,1.6464590,-6.8451400,-16.9743748,0.0000000,0.0000000,0.0000000,0.0200100,0.3547332,0.0000000,0.0000000,0.0160350,0.0000000,0.0000000,0.0000000,0.3547332,0.0000000,0.0000000,0.0160350,0.0000000,0.0000000,0.0000000,0.3547332,0.0000000,0.0000000,0.0160350,0.0160350,0.0000000,0.0000000,0.0008996,0.0000000,0.0000000,0.0000000,0.0160350,0.0000000,0.0000000,0.0008996,0.0000000,0.0000000,0.0000000,0.0160350,0.0000000,0.0000000,0.0008996
34.0800830,,1.0000900,-0.9726616,-0.2322070,0.0001149,0.0030395,,,,-0.0492785,-0.0249513,-0.0000656,1.6458398,-6.8454537,-16.9743748,-0.0000280,-0.0000142,-0.0000000,0.1000090,0.3502758,0.0000000,0.0000000,0.0158335,0.0000000,0.0000000,0.0000000,0.3502758,0.0000000,0.0000000,0.0158335,0.0000000,0.0000000,0.0000000,0.3502758,0.0000000,0.0000000,0.0158335,0.0158335,0.0000000,0.0000000,0.0008905,0.0000000,0.0000000,0.0000000,0.0158335,0.0000000,0.0000000,0.0008905,0.0000000,0.0000000,0.0000000,0.0158335,0.0000000,0.0000000,0.0008905
34.0938190,1.0994500,,-0.9726616,-0.2322070,0.0001149,0.0030395,-0.0025653,-0.0148887,0.0182960,,,,1.6458398,-6.8454537,-16.9743748,0.0000000,0.0000000,0.0000000,0.0219890,0.3509722,0.0000000,0.0000000,0.0158531,0.0000000,0.0000000,0.0000000,0.3509722,0.0000000,0.0000000,0.0158531,0.0000000,0.0000000,0.0000000,0.3509722,0.0000000,0.0000000,0.0158531,0.0158531,0.0000000,0.0000000,0.0008905,0.0000000,0.0000000,0.0000000,0.0158531,0.0000000,0.0000000,0.0008905,0.0000000,0.0000000,0.0000000,0.0158531,0.0000000,0.0000000,0.0008905
34.1065880,1.2999500,,-0.9726691,-0.2321754,0.0001177,0.0030680,-0.0028543,-0.0229549,0.0118259,,,,1.6458398,-6.8454537,-16.9743748,0.0000000,0.0000000,0.0000000,0.0259990,0.3517965,0.0000000,0.0000000,0.0158763,0.0000000,0.0000000,0.0000000,0.3517965,0.0000000,0.0000000,0.0158763,0.0000000,0.0000000,0.0000000,0.3517965,0.0000000,0.0000000,0.0158763,0.0158763,0.0000000,0.0000000,0.0008905,0.0000000,0.0000000,0.0000000,0.0158763,0.0000000,0.0000000,0.0008905,0.0000000,0.0000000,0.0000000,0.0158763,0.0000000,0.0000000,0.0008905
34.1265260,1.0002000,,-0.9726685,-0.2321777,0.0001217,0.0030589,-0.0066457,-0.0194654,0.0117647,,,,1.6458398,-6.8454537,-16.9743748,0.0000000,0.0000000,0.0000000,0.0200040,0.3524317,0.0000000,0.0000000,0.0158941,0.0000000,0.0000000,0.0000000,0.3524317,0.0000000,0.0000000,0.0158941,0.0000000,0.0000000,0.0000000,0.3524317,0.0000000,0.0000000,0.0158941,0.0158941,0.0000000,0.0000000,0.0008905,0.0000000,0.0000000,0.0000000,0.0158941,0.0000000,0.0000000,0.0008905,0.0000000,0.0000000,0.0000000,0.0158941,0.0000000,0.0000000,0.0008905
34.1476670,1.0502501,,-0.9726788,-0.2321347,0.0000720,0.0030706,-0.0013239,-0.0177131,0.0073396,,,,1.6458398,-6.8454537,-16.9743748,0.0000000,0.0000000,0.0000000,0.0210050,0.3530994,0.0000000,0.0000000,0.0159128,0.0000000,0.0000000,0.0000000,0.3530994,0.0000000,0.0000000,0.0159128,0.0000000,0.0000000,0.0000000,0.3530994,0.0000000,0.0000000,0.0159128,0.0159128,0.0000000,0.0000000,0.0008905,0.0000000,0.0000000,0.0000000,0.0159128,0.0000000,0.0000000,0.0008905,0.0000000,0.0000000,0.0000000,0.0159128,0.0000000,0.0000000,0.0008905
34.1688640,1.0497000,,-0.9726840,-0.2321131,0.0000540,0.0030656,0.0001315,-0.0168521,0.0078125,,,,1.6458398,-6.8454537,-16.9743748,0.0000000,0.0000000,0.0000000,0.0209940,0.3537675,0.0000000,0.0000000,0.0159315,0.0000000,0.0000000,0.0000000,0.3537675,0.0000000,0.0000000,0.0159315,0.0000000,0.0000000,0.0000000,0.3537675,0.0000000,0.0000000,0.0159315,0.0159315,0.0000000,0.0000000,0.0008905,0.0000000,0.0000000,0.0000000,0.0159315,0.0000000,0.0000000,0.0008905,0.0000000,0.0000000,0.0000000,0.0159315,0.0000000,0.0000000,0.0008905
34.1848980,,1.0199300,-0.9726840,-0.2321131,0.0000540,0.0030656,,,,-0.0218074,-0.0110362,-0.0000322,1.6455666,-6.8455920,-16.9743748,-0.0000123,-0.0000062,-0.0000000,0.1019930,0.3493343,0.0000000,0.0000000,0.0157318,0.0000000,0.0000000,0.0000000,0.3493343,0.0000000,0.0000000,0.0157318,0.0000000,0.0000000,0.0000000,0.3493343,0.0000000,0.0000000,0.0157318,0.0157318,0.0000000,0.0000000,0.0008816,0.0000000,0.0000000,0.0000000,0.0157318,0.0000000,0.0000000,0.0008816,0.0000000,0.0000000,0.0000000,0.0157318,0.0000000,0.0000000,0.0008816
34.1987130,1.1002001,,-0.9726772,-0.2321410,0.0001036,0.0030866,0.0026674,-0.0329546,0.0087815,,,,1.6455666,-6.8455920,-16.9743748,0.0000000,0.0000000,0.0000000,0.0220040,0.3500266,0.0000000,0.0000000,0.0157512,0.0000000,0.0000000,0.0000000,0.3500266,0.0000000,0.0000000,0.0157512,0.0000000,0.0000000,0.0000000,0.3500266,0.0000000,0.0000000,0.0157512,0.0157512,0.0000000,0.0000000,0.0008816,0.0000000,0.0000000,0.0000000,0.0157512,0.0000000,0.0000000,0.0008816,0.0000000,0.0000000,0.0000000,0.0157512,0.0000000,0.0000000,0.0008816
34.2114470,1.0498999,,-0.9726711,-0.2321663,0.0001581,0.0031110,0.0015473,-0.0131280,0.0009651,,,,1.6455666,-6.8455920,-16.9743748,0.0000000,0.0000000,0.0000000,0.0209980,0.3506881,0.0000000,0.0000000,0.0157697,0.0000000,0.0000000,0.0000000,0.3506881,0.0000000,0.0000000,0.0157697,0.0000000,0.0000000,0.0000000,0.3506881,0.0000000,0.0000000,0.0157697,0.0157697,0.0000000,0.0000000,0.0008816,0.0000000,0.0000000,0.0000000,0.0157697,0.0000000,0.0000000,0.0008816,0.0000000,0.0000000,0.0000000,0.0157697,0.0000000,0.0000000,0.0008816
34.2324270,1.0499500,,-0.9726681,-0.2321790,0.0002041,0.0031255,-0.0060547,0.0002109,0.0068226,,,,1.6455666,-6.8455920,-16.9743748,0.0000000,0.0000000,0.0000000,0.0209990,0.3513504,0.0000000,0.0000000,0.0157883,0.0000000,0.0000000,0.0000000,0.3513504,0.0000000,0.0000000,0.0157883,0.0000000,0.0000000,0.0000000,0.3513504,0.0000000,0.0000000,0.0157883,0.0157883,0.0000000,0.0000000,0.0008816,0.0000000,0.0000000,0.0000000,0.0157883,0.0000000,0.0000000,0.0008816,0.0000000,0.0000000,0.0000000,0.0157883,0.0000000,0.0000000,0.0008816
34.2539120,1.0498999,,-0.9726738,-0.2321558,0.0002250,0.0030617,-0.0015243,-0.0030226,-0.0014791,,,,1.6455666,-6.8455920,-16.9743748,0.0000000,0.0000000,0.0000000,0.0209980,0.3520134,0.0000000,0.0000000,0.0158068,0.0000000,0.0000000,0.0000000,0.3520134,0.0000000,0.0000000,0.0158068,0.0000000,0.0000000,0.0000000,0.3520134,0.0000000,0.0000000,0.0158068,0.0158068,0.0000000,0.0000000,0.0008816,0.0000000,0.0000000,0.0000000,0.0158068,0.0000000,0.0000000,0.0008816,0.0000000,0.0000000,0.0000000,0.0158068,0.0000000,0.0000000,0.0008816
34.2746900,1.0500000,,-0.9726754,-0.2321486,0.0002060,0.0030925,-0.0171730,0.0284264,-0.0075831,,,,1.6455666,-6.8455920,-16.9743748,0.0000000,0.0000000,0.0000000,0.0210000,0.3526773,0.0000000,0.0000000,0.0158253,0.0000000,0.0000000,0.0000000,0.3526773,0.0000000,0.0000000,0.0158253,0.0000000,0.0000000,0.0000000,0.3526773,0.0000000,0.0000000,0.0158253,0.0158253,0.0000000,0.0000000,0.0008816,0.0000000,0.0000000,0.0000000,0.0158253,0.0000000,0.0000000,0.0008816,0.0000000,0.0000000,0.0000000,0.0158253,0.0000000,0.0000000,0.0008816
34.2906880,,0.9999800,-0.9726754,-0.2321486,0.0002060,0.0030925,,,,-0.0281974,-0.0142727,-0.0000327,1.6452143,-6.8457704,-16.9743748,-0.0000158,-0.0000080,-0.0000000,0.0999980,0.3482711,0.0000000,0.0000000,0.0156276,0.0000000,0.0000000,0.0000000,0.3482711,0.0000000,0.0000000,0.0156276,0.0000000,0.0000000,0.0000000,0.3482711,0.0000000,0.0000000,0.0156276,0.0156276,0.0000000,0.0000000,0.0008727,0.0000000,0.0000000,0.0000000,0.0156276,0.0000000,0.0000000,0.0008727,0.0000000,0.0000000,0.0000000,0.0156276,0.0000000,0.0000000,0.0008727
34.3046910,0.9999000,,-0.9726752,-0.2321497,0.0002109,0.0030621,-0.0137135,0.0057446,-0.0069730,,,,1.6452143,-6.8457704,-16.9743748,0.0000000,0.0000000,0.0000000,0.0199980,0.3488962,0.0000000,0.0000000,0.0156450,0.0000000,0.0000000,0.0000000,0.3488962,0.0000000,0.0000000,0.0156450,0.0000000,0.0000000,0.0000000,0.3488962,0.0000000,0.0000000,0.0156450,0.0156450,0.0000000,0.0000000,0.0008727,0.0000000,0.0000000,0.0000000,0.0156450,0.0000000,0.0000000,0.0008727,0.0000000,0.0000000,0.0000000,0.0156450,0.0000000,0.0000000,0.0008727
34.3174770,1.1500000,,-0.9726751,-0.2321502,0.0002169,0.0030595,-0.0000208,0.0185965,-0.0139922,,,,1.6452143,-6.8457704,-16.9743748,0.0000000,0.0000000,0.0000000,0.0230000,0.3496158,0.0000000,0.0000000,0.0156651,0.0000000,0.0000000,0.0000000,0.3496158,0.0000000,0.0000000,0.0156651,0.0000000,0.0000000,0.0000000,0.3496158,0.0000000,0.0000000,0.0156651,0.0156651,0.0000000,0.0000000,0.0008727,0.0000000,0.0000000,0.0000000,0.0156651,0.0000000,0.0000000,0.0008727,0.0000000,0.0000000,0.0000000,0.0156651,0.0000000,0.0000000,0.0008727
34.3387740,1.0506001,,-0.9726704,-0.2321698,0.0002177,0.0030627,-0.0039243,-0.0023137,0.0015412,,,,1.6452143,-6.8457704,-16.9743748,0.0000000,0.0000000,0.0000000,0.0210120,0.3502741,0.0000000,0.0000000,0.0156834,0.0000000,0.0000000,0.0000000,0.3502741,0.0000000,0.0000000,0.0156834,0.0000000,0.0000000,0.0000000,0.3502741,0.0000000,0.0000000,0.0156834,0.0156834,0.0000000,0.0000000,0.0008727,0.0000000,0.0000000,0.0000000,0.0156834,0.0000000,0.0000000,0.0008727,0.0000000,0.0000000,0.0000000,0.0156834,0.0000000,0.0000000,0.0008727
34.3587240,0.9995000,,-0.9726731,-0.2321592,0.0001990,0.0030329,-0.0146880,0.0086469,0.0054016,,,,1.6452143,-6.8457704,-16.9743748,0.0000000,0.0000000,0.0000000,0.0199900,0.3509012,0.0000000,0.0000000,0.0157009,0.0000000,0.0000000,0.0000000,0.3509012,0.0000000,0.0000000,0.0157009,0.0000000,0.0000000,0.0000000,0.3509012,0.0000000,0.0000000,0.0157009,0.0157009,0.0000000,0.0000000,0.0008727,0.0000000,0.0000000,0.0000000,0.0157009,0.0000000,0.0000000,0.0008727,0.0000000,0.0000000,0.0000000,0.0157009,0.0000000,0.0000000,0.0008727
