t,predict_cpu,update_cpu,quat_x,quat_y,quat_z,quat_w,accel_x,accel_y,accel_z,of_x,of_y,of_z,x_x,x_y,x_z,x_vx,x_vy,x_vz,dt,P_0,P_1,P_2,P_3,P_4,P_5,P_6,P_7,P_8,P_9,P_10,P_11,P_12,P_13,P_14,P_15,P_16,P_17,P_18,P_19,P_20,P_21,P_22,P_23,P_24,P_25,P_26,P_27,P_28,P_29,P_30,P_31,P_32,P_33,P_34,P_35
52.1585160,1.0497501,,-0.9745629,-0.2240996,-0.0001394,0.0025476,0.0012382,0.0038733,-0.0011689,,,,0.9670991,-4.2226515,-11.5940275,0.0000000,0.0000000,0.0000000,0.0209950,0.0002034,0.0000000,0.0000000,0.0000203,0.0000000,0.0000000,0.0000000,0.0002034,0.0000000,0.0000000,0.0000203,0.0000000,0.0000000,0.0000000,0.0002034,0.0000000,0.0000000,0.0000203,0.0000203,0.0000000,0.0000000,0.0000040,0.0000000,0.0000000,0.0000000,0.0000203,0.0000000,0.0000000,0.0000040,0.0000000,0.0000000,0.0000000,0.0000203,0.0000000,0.0000000,0.0000040
52.1747110,,1.0199499,-0.9745629,-0.2240996,-0.0001394,0.0025476,,,,0.0000000,0.0000000,0.0000000,0.9670991,-4.2226515,-11.5940275,0.0000000,0.0000000,0.0000000,0.1019950,0.0001994,0.0000000,0.0000000,0.0000199,0.0000000,0.0000000,0.0000000,0.0001994,0.0000000,0.0000000,0.0000199,0.0000000,0.0000000,0.0000000,0.0001994,0.0000000,0.0000000,0.0000199,0.0000199,0.0000000,0.0000000,0.0000040,0.0000000,0.0000000,0.0000000,0.0000199,0.0000000,0.0000000,0.0000040,0.0000000,0.0000000,0.0000000,0.0000199,0.0000000,0.0000000,0.0000040
52.1883660,1.0999000,,-0.9745630,-0.2240996,-0.0001273,0.0025045,-0.0044392,-0.0000775,-0.0013169,,,,0.9670991,-4.2226515,-11.5940275,0.0000000,0.0000000,0.0000000,0.0219980,0.0002002,0.0000000,0.0000000,0.0000200,0.0000000,0.0000000,0.0000000,0.0002002,0.0000000,0.0000000,0.0000200,0.0000000,0.0000000,0.0000000,0.0002002,0.0000000,0.0000000,0.0000200,0.0000200,0.0000000,0.0000000,0.0000040,0.0000000,0.0000000,0.0000000,0.0000200,0.0000000,0.0000000,0.0000040,0.0000000,0.0000000,0.0000000,0.0000200,0.0000000,0.0000000,0.0000040
52.2017980,1.0500000,,-0.9745631,-0.2240996,-0.0001132,0.0024904,-0.0018915,-0.0056998,0.0032478,,,,0.9670991,-4.2226515,-11.5940275,0.0000000,0.0000000,0.0000000,0.0210000,0.0002011,0.0000000,0.0000000,0.0000201,0.0000000,0.0000000,0.0000000,0.0002011,0.0000000,0.0000000,0.0000201,0.0000000,0.0000000,0.0000000,0.0002011,0.0000000,0.0000000,0.0000201,0.0000201,0.0000000,0.0000000,0.0000040,0.0000000,0.0000000,0.0000000,0.0000201,0.0000000,0.0000000,0.0000040,0.0000000,0.0000000,0.0000000,0.0000201,0.0000000,0.0000000,0.0000040
52.2219830,0.9999500,,-0.9745631,-0.2240996,-0.0001086,0.0024906,-0.0008695,-0.0038570,0.0060184,,,,0.9670991,-4.2226515,-11.5940275,0.0000000,0.0000000,0.0000000,0.0199990,0.0002019,0.0000000,0.0000000,0.0000202,0.0000000,0.0000000,0.0000000,0.0002019,0.0000000,0.0000000,0.0000202,0.0000000,0.0000000,0.0000000,0.0002019,0.0000000,0.0000000,0.0000202,0.0000202,0.0000000,0.0000000,0.0000040,0.0000000,0.0000000,0.0000000,0.0000202,0.0000000,0.0000000,0.0000040,0.0000000,0.0000000,0.0000000,0.0000202,0.0000000,0.0000000,0.0000040
52.2418780,1.0004500,,-0.9745630,-0.2240996,-0.0001129,0.0025096,0.0052339,-0.0068113,0.0056948,,,,0.9670991,-4.2226515,-11.5940275,0.0000000,0.0000000,0.0000000,0.0200090,0.0002027,0.0000000,0.0000000,0.0000203,0.0000000,0.0000000,0.0000000,0.0002027,0.0000000,0.0000000,0.0000203,0.0000000,0.0000000,0.0000000,0.0002027,0.0000000,0.0000000,0.0000203,0.0000203,0.0000000,0.0000000,0.0000040,0.0000000,0.0000000,0.0000000,0.0000203,0.0000000,0.0000000,0.0000040,0.0000000,0.0000000,0.0000000,0.0000203,0.0000000,0.0000000,0.0000040
52.2615420,0.9997500,,-0.9745631,-0.2240996,-0.0001114,0.0024824,-0.0036544,-0.0032302,0.0038239,,,,0.9670991,-4.2226515,-11.5940275,0.0000000,0.0000000,0.0000000,0.0199950,0.0002035,0.0000000,0.0000000,0.0000203,0.0000000,0.0000000,0.0000000,0.0002035,0.0000000,0.0000000,0.0000203,0.0000000,0.0000000,0.0000000,0.0002035,0.0000000,0.0000000,0.0000203,0.0000203,0.0000000,0.0000000,0.0000040,0.0000000,0.0000000,0.0000000,0.0000203,0.0000000,0.0000000,0.0000040,0.0000000,0.0000000,0.0000000,0.0000203,0.0000000,0.0000000,0.0000040
52.2766690,,1.0200300,-0.9745631,-0.2240996,-0.0001114,0.0024824,,,,0.0000000,0.0000000,0.0000000,0.9670991,-4.2226515,-11.5940275,0.0000000,0.0000000,0.0000000,0.1020030,0.0001994,0.0000000,0.0000000,0.0000199,0.0000000,0.0000000,0.0000000,0.0001994,0.0000000,0.0000000,0.0000199,0.0000000,0.0000000,0.0000000,0.0001994,0.0000000,0.0000000,0.0000199,0.0000199,0.0000000,0.0000000,0.0000040,0.0000000,0.0000000,0.0000000,0.0000199,0.0000000,0.0000000,0.0000040,0.0000000,0.0000000,0.0000000,0.0000199,0.0000000,0.0000000,0.0000040
52.2904310,1.0001000,,-0.9745631,-0.2240997,-0.0001276,0.0024740,-0.0015373,-0.0043693,-0.0029708,,,,0.9670991,-4.2226515,-11.5940275,0.0000000,0.0000000,0.0000000,0.0200020,0.0002002,0.0000000,0.0000000,0.0000200,0.0000000,0.0000000,0.0000000,0.0002002,0.0000000,0.0000000,0.0000200,0.0000000,0.0000000,0.0000000,0.0002002,0.0000000,0.0000000,0.0000200,0.0000200,0.0000000,0.0000000,0.0000040,0.0000000,0.0000000,0.0000000,0.0000200,0.0000000,0.0000000,0.0000040,0.0000000,0.0000000,0.0000000,0.0000200,0.0000000,0.0000000,0.0000040
52.3036560,1.0998001,,-0.9745631,-0.2240996,-0.0001139,0.0024608,-0.0121517,-0.0090969,-0.0000206,,,,0.9670991,-4.2226515,-11.5940275,0.0000000,0.0000000,0.0000000,0.0219960,0.0002011,0.0000000,0.0000000,0.0000201,0.0000000,0.0000000,0.0000000,0.0002011,0.0000000,0.0000000,0.0000201,0.0000000,0.0000000,0.0000000,0.0002011,0.0000000,0.0000000,0.0000201,0.0000201,0.0000000,0.0000000,0.0000040,0.0000000,0.0000000,0.0000000,0.0000201,0.0000000,0.0000000,0.0000040,0.0000000,0.0000000,0.0000000,0.0000201,0.0000000,0.0000000,0.0000040
52.3240250,1.0000000,,-0.9745631,-0.2240996,-0.0001089,0.0024617,-0.0062361,-0.0038771,0.0051167,,,,0.9670991,-4.2226515,-11.5940275,0.0000000,0.0000000,0.0000000,0.0200000,0.0002019,0.0000000,0.0000000,0.0000202,0.0000000,0.0000000,0.0000000,0.0002019,0.0000000,0.0000000,0.0000202,0.0000000,0.0000000,0.0000000,0.0002019,0.0000000,0.0000000,0.0000202,0.0000202,0.0000000,0.0000000,0.0000040,0.0000000,0.0000000,0.0000000,0.0000202,0.0000000,0.0000000,0.0000040,0.0000000,0.0000000,0.0000000,0.0000202,0.0000000,0.0000000,0.0000040
52.3436280,1.0000000,,-0.9745631,-0.2240997,-0.0001151,0.0024599,0.0001245,-0.0005423,0.0006052,,,,0.9670991,-4.2226515,-11.5940275,0.0000000,0.0000000,0.0000000,0.0200000,0.0002027,0.0000000,0.0000000,0.0000203,0.0000000,0.0000000,0.0000000,0.0002027,0.0000000,0.0000000,0.0000203,0.0000000,0.0000000,0.0000000,0.0002027,0.0000000,0.0000000,0.0000203,0.0000203,0.0000000,0.0000000,0.0000040,0.0000000,0.0000000,0.0000000,0.0000203,0.0000000,0.0000000,0.0000040,0.0000000,0.0000000,0.0000000,0.0000203,0.0000000,0.0000000,0.0000040
52.3636720,1.0000000,,-0.9745630,-0.2240995,-0.0000838,0.0025012,-0.0020206,-0.0078090,-0.0053126,,,,0.9670991,-4.2226515,-11.5940275,0.0000000,0.0000000,0.0000000,0.0200000,0.0002035,0.0000000,0.0000000,0.0000203,0.0000000,0.0000000,0.0000000,0.0002035,0.0000000,0.0000000,0.0000203,0.0000000,0.0000000,0.0000000,0.0002035,0.0000000,0.0000000,0.0000203,0.0000203,0.0000000,0.0000000,0.0000040,0.0000000,0.0000000,0.0000000,0.0000203,0.0000000,0.0000000,0.0000040,0.0000000,0.0000000,0.0000000,0.0000203,0.0000000,0.0000000,0.0000040
52.3794930,,0.9999900,-0.9745630,-0.2240995,-0.0000838,0.0025012,,,,0.0000000,0.0000000,0.0000000,0.9670991,-4.2226515,-11.5940275,0.0000000,0.0000000,0.0000000,0.0999990,0.0001995,0.0000000,0.0000000,0.0000199,0.0000000,0.0000000,0.0000000,0.0001995,0.0000000,0.0000000,0.0000199,0.0000000,0.0000000,0.0000000,0.0001995,0.0000000,0.0000000,0.0000199,0.0000199,0.0000000,0.0000000,0.0000040,0.0000000,0.0000000,0.0000000,0.0000199,0.0000000,0.0000000,0.0000040,0.0000000,0.0000000,0.0000000,0.0000199,0.0000000,0.0000000,0.0000040
52.3935340,0.9999500,,-0.9745630,-0.2240995,-0.0000613,0.0025267,-0.0035661,-0.0075285,-0.0097364,,,,0.9670991,-4.2226515,-11.5940275,0.0000000,0.0000000,0.0000000,0.0199990,0.0002003,0.0000000,0.0000000,0.0000200,0.0000000,0.0000000,0.0000000,0.0002003,0.0000000,0.0000000,0.0000200,0.0000000,0.0000000,0.0000000,0.0002003,0.0000000,0.0000000,0.0000200,0.0000200,0.0000000,0.0000000,0.0000040,0.0000000,0.0000000,0.0000000,0.0000200,0.0000000,0.0000000,0.0000040,0.0000000,0.0000000,0.0000000,0.0000200,0.0000000,0.0000000,0.0000040
52.4064630,1.1499500,,-0.9745630,-0.2240994,-0.0000318,0.0025431,-0.0045525,-0.0056640,-0.0012061,,,,0.9670991,-4.2226515,-11.5940275,0.0000000,0.0000000,0.0000000,0.0229990,0.0002012,0.0000000,0.0000000,0.0000201,0.0000000,0.0000000,0.0000000,0.0002012,0.0000000,0.0000000,0.0000201,0.0000000,0.0000000,0.0000000,0.0002012,0.0000000,0.0000000,0.0000201,0.0000201,0.0000000,0.0000000,0.0000040,0.0000000,0.0000000,0.0000000,0.0000201,0.0000000,0.0000000,0.0000040,0.0000000,0.0000000,0.0000000,0.0000201,0.0000000,0.0000000,0.0000040
52.4277690,1.0504000,,-0.9745629,-0.2240993,-0.0000045,0.0025664,-0.0008801,-0.0073791,0.0020825,,,,0.9670991,-4.2226515,-11.5940275,0.0000000,0.0000000,0.0000000,0.0210080,0.0002020,0.0000000,0.0000000,0.0000202,0.0000000,0.0000000,0.0000000,0.0002020,0.0000000,0.0000000,0.0000202,0.0000000,0.0000000,0.0000000,0.0002020,0.0000000,0.0000000,0.0000202,0.0000202,0.0000000,0.0000000,0.0000040,0.0000000,0.0000000,0.0000000,0.0000202,0.0000000,0.0000000,0.0000040,0.0000000,0.0000000,0.0000000,0.0000202,0.0000000,0.0000000,0.0000040
52.4476310,0.9997000,,-0.9745629,-0.2240993,0.0000100,0.0025689,-0.0026983,-0.0080078,-0.0004236,,,,0.9670991,-4.2226515,-11.5940275,0.0000000,0.0000000,0.0000000,0.0199940,0.0002028,0.0000000,0.0000000,0.0000203,0.0000000,0.0000000,0.0000000,0.0002028,0.0000000,0.0000000,0.0000203,0.0000000,0.0000000,0.0000000,0.0002028,0.0000000,0.0000000,0.0000203,0.0000203,0.0000000,0.0000000,0.0000040,0.0000000,0.0000000,0.0000000,0.0000203,0.0000000,0.0000000,0.0000040,0.0000000,0.0000000,0.0000000,0.0000203,0.0000000,0.0000000,0.0000040
52.4680220,,1.0100299,-0.9745629,-0.2240993,-0.0000172,0.0025771,,,,0.0000000,0.0000000,0.0000000,0.9670991,-4.2226515,-11.5940275,0.0000000,0.0000000,0.0000000,0.1010030,0.0001988,0.0000000,0.0000000,0.0000199,0.0000000,0.0000000,0.0000000,0.0001988,0.0000000,0.0000000,0.0000199,0.0000000,0.0000000,0.0000000,0.0001988,0.0000000,0.0000000,0.0000199,0.0000199,0.0000000,0.0000000,0.0000040,0.0000000,0.0000000,0.0000000,0.0000199,0.0000000,0.0000000,0.0000040,0.0000000,0.0000000,0.0000000,0.0000199,0.0000000,0.0000000,0.0000040
52.4825610,0.9999000,,-0.9745629,-0.2240993,-0.0000172,0.0025771,0.0002301,-0.0010055,0.0014972,,,,0.9670991,-4.2226515,-11.5940275,0.0000000,0.0000000,0.0000000,0.0199980,0.0001996,0.0000000,0.0000000,0.0000199,0.0000000,0.0000000,0.0000000,0.0001996,0.0000000,0.0000000,0.0000199,0.0000000,0.0000000,0.0000000,0.0001996,0.0000000,0.0000000,0.0000199,0.0000199,0.0000000,0.0000000,0.0000040,0.0000000,0.0000000,0.0000000,0.0000199,0.0000000,0.0000000,0.0000040,0.0000000,0.0000000,0.0000000,0.0000199,0.0000000,0.0000000,0.0000040
52.4957560,1.4000500,,-0.9745628,-0.2240994,-0.0000514,0.0025944,-0.0027460,-0.0033409,0.0005045,,,,0.9670991,-4.2226515,-11.5940275,0.0000000,0.0000000,0.0000000,0.0280010,0.0002007,0.0000000,0.0000000,0.0000201,0.0000000,0.0000000,0.0000000,0.0002007,0.0000000,0.0000000,0.0000201,0.0000000,0.0000000,0.0000000,0.0002007,0.0000000,0.0000000,0.0000201,0.0000201,0.0000000,0.0000000,0.0000040,0.0000000,0.0000000,0.0000000,0.0000201,0.0000000,0.0000000,0.0000040,0.0000000,0.0000000,0.0000000,0.0000201,0.0000000,0.0000000,0.0000040
52.5170650,1.0006001,,-0.9745628,-0.2240995,-0.0000831,0.0026030,-0.0001141,-0.0003658,-0.0014568,,,,0.9670991,-4.2226515,-11.5940275,0.0000000,0.0000000,0.0000000,0.0200120,0.0002015,0.0000000,0.0000000,0.0000201,0.0000000,0.0000000,0.0000000,0.0002015,0.0000000,0.0000000,0.0000201,0.0000000,0.0000000,0.0000000,0.0002015,0.0000000,0.0000000,0.0000201,0.0000201,0.0000000,0.0000000,0.0000040,0.0000000,0.0000000,0.0000000,0.0000201,0.0000000,0.0000000,0.0000040,0.0000000,0.0000000,0.0000000,0.0000201,0.0000000,0.0000000,0.0000040
52.5357620,0.9998000,,-0.9745627,-0.2240995,-0.0001056,0.0026230,0.0016748,0.0033419,-0.0021932,,,,0.9670991,-4.2226515,-11.5940275,0.0000000,0.0000000,0.0000000,0.0199960,0.0002023,0.0000000,0.0000000,0.0000202,0.0000000,0.0000000,0.0000000,0.0002023,0.0000000,0.0000000,0.0000202,0.0000000,0.0000000,0.0000000,0.0002023,0.0000000,0.0000000,0.0000202,0.0000202,0.0000000,0.0000000,0.0000040,0.0000000,0.0000000,0.0000000,0.0000202,0.0000000,0.0000000,0.0000040,0.0000000,0.0000000,0.0000000,0.0000202,0.0000000,0.0000000,0.0000040
52.5557780,0.9996500,,-0.9745626,-0.2240996,-0.0001165,0.0026427,-0.0028094,-0.0025939,0.0006124,,,,0.9670991,-4.2226515,-11.5940275,0.0000000,0.0000000,0.0000000,0.0199930,0.0002031,0.0000000,0.0000000,0.0000203,0.0000000,0.0000000,0.0000000,0.0002031,0.0000000,0.0000000,0.0000203,0.0000000,0.0000000,0.0000000,0.0002031,0.0000000,0.0000000,0.0000203,0.0000203,0.0000000,0.0000000,0.0000040,0.0000000,0.0000000,0.0000000,0.0000203,0.0000000,0.0000000,0.0000040,0.0000000,0.0000000,0.0000000,0.0000203,0.0000000,0.0000000,0.0000040
52.5714870,,1.0000499,-0.9745626,-0.2240996,-0.0001165,0.0026427,,,,0.0000000,0.0000000,0.0000000,0.9670991,-4.2226515,-11.5940275,0.0000000,0.0000000,0.0000000,0.1000050,0.0001991,0.0000000,0.0000000,0.0000199,0.0000000,0.0000000,0.0000000,0.0001991,0.0000000,0.0000000,0.0000199,0.0000000,0.0000000,0.0000000,0.0001991,0.0000000,0.0000000,0.0000199,0.0000199,0.0000000,0.0000000,0.0000040,0.0000000,0.0000000,0.0000000,0.0000199,0.0000000,0.0000000,0.0000040,0.0000000,0.0000000,0.0000000,0.0000199,0.0000000,0.0000000,0.0000040
52.5853730,1.0000501,,-0.9745626,-0.2240996,-0.0001359,0.0026357,0.0000525,-0.0014495,-0.0050649,,,,0.9670991,-4.2226515,-11.5940275,0.0000000,0.0000000,0.0000000,0.0200010,0.0001999,0.0000000,0.0000000,0.0000200,0.0000000,0.0000000,0.0000000,0.0001999,0.0000000,0.0000000,0.0000200,0.0000000,0.0000000,0.0000000,0.0001999,0.0000000,0.0000000,0.0000200,0.0000200,0.0000000,0.0000000,0.0000040,0.0000000,0.0000000,0.0000000,0.0000200,0.0000000,0.0000000,0.0000040,0.0000000,0.0000000,0.0000000,0.0000200,0.0000000,0.0000000,0.0000040
52.5985910,1.1498500,,-0.9745626,-0.2240996,-0.0001321,0.0026308,-0.0092282,0.0030289,-0.0030207,,,,0.9670991,-4.2226515,-11.5940275,0.0000000,0.0000000,0.0000000,0.0229970,0.0002008,0.0000000,0.0000000,0.0000201,0.0000000,0.0000000,0.0000000,0.0002008,0.0000000,0.0000000,0.0000201,0.0000000,0.0000000,0.0000000,0.0002008,0.0000000,0.0000000,0.0000201,0.0000201,0.0000000,0.0000000,0.0000040,0.0000000,0.0000000,0.0000000,0.0000201,0.0000000,0.0000000,0.0000040,0.0000000,0.0000000,0.0000000,0.0000201,0.0000000,0.0000000,0.0000040
52.6198580,1.0502001,,-0.9745628,-0.2240997,-0.0001420,0.0026011,-0.0026457,0.0020409,0.0045931,,,,0.9670991,-4.2226515,-11.5940275,0.0000000,0.0000000,0.0000000,0.0210040,0.0002016,0.0000000,0.0000000,0.0000201,0.0000000,0.0000000,0.0000000,0.0002016,0.0000000,0.0000000,0.0000201,0.0000000,0.0000000,0.0000000,0.0002016,0.0000000,0.0000000,0.0000201,0.0000201,0.0000000,0.0000000,0.0000040,0.0000000,0.0000000,0.0000000,0.0000201,0.0000000,0.0000000,0.0000040,0.0000000,0.0000000,0.0000000,0.0000201,0.0000000,0.0000000,0.0000040
52.6397990,1.0000000,,-0.9745628,-0.2240997,-0.0001565,0.0025904,0.0025758,0.0056973,-0.0001448,,,,0.9670991,-4.2226515,-11.5940275,0.0000000,0.0000000,0.0000000,0.0200000,0.0002025,0.0000000,0.0000000,0.0000202,0.0000000,0.0000000,0.0000000,0.0002025,0.0000000,0.0000000,0.0000202,0.0000000,0.0000000,0.0000000,0.0002025,0.0000000,0.0000000,0.0000202,0.0000202,0.0000000,0.0000000,0.0000040,0.0000000,0.0000000,0.0000000,0.0000202,0.0000000,0.0000000,0.0000040,0.0000000,0.0000000,0.0000000,0.0000202,0.0000000,0.0000000,0.0000040
52.6598660,1.0005500,,-0.9745628,-0.2240997,-0.0001545,0.0025736,-0.0030914,0.0092192,-0.0012931,,,,0.9670991,-4.2226515,-11.5940275,0.0000000,0.0000000,0.0000000,0.0200110,0.0002033,0.0000000,0.0000000,0.0000203,0.0000000,0.0000000,0.0000000,0.0002033,0.0000000,0.0000000,0.0000203,0.0000000,0.0000000,0.0000000,0.0002033,0.0000000,0.0000000,0.0000203,0.0000203,0.0000000,0.0000000,0.0000040,0.0000000,0.0000000,0.0000000,0.0000203,0.0000000,0.0000000,0.0000040,0.0000000,0.0000000,0.0000000,0.0000203,0.0000000,0.0000000,0.0000040
52.6756290,,0.9999100,-0.9745628,-0.2240997,-0.0001545,0.0025736,,,,0.0000000,0.0000000,0.0000000,0.9670991,-4.2226515,-11.5940275,0.0000000,0.0000000,0.0000000,0.0999910,0.0001992,0.0000000,0.0000000,0.0000199,0.0000000,0.0000000,0.0000000,0.0001992,0.0000000,0.0000000,0.0000199,0.0000000,0.0000000,0.0000000,0.0001992,0.0000000,0.0000000,0.0000199,0.0000199,0.0000000,0.0000000,0.0000040,0.0000000,0.0000000,0.0000000,0.0000199,0.0000000,0.0000000,0.0000040,0.0000000,0.0000000,0.0000000,0.0000199,0.0000000,0.0000000,0.0000040
52.6892560,0.9994500,,-0.9745628,-0.2240997,-0.0001399,0.0025692,-0.0056579,0.0021987,0.0032597,,,,0.9670991,-4.2226515,-11.5940275,0.0000000,0.0000000,0.0000000,0.0199890,0.0002000,0.0000000,0.0000000,0.0000200,0.0000000,0.0000000,0.0000000,0.0002000,0.0000000,0.0000000,0.0000200,0.0000000,0.0000000,0.0000000,0.0002000,0.0000000,0.0000000,0.0000200,0.0000200,0.0000000,0.0000000,0.0000040,0.0000000,0.0000000,0.0000000,0.0000200,0.0000000,0.0000000,0.0000040,0.0000000,0.0000000,0.0000000,0.0000200,0.0000000,0.0000000,0.0000040
52.7027220,1.1497999,,-0.9745628,-0.2240996,-0.0001162,0.0025883,-0.0059418,-0.0002816,0.0011416,,,,0.9670991,-4.2226515,-11.5940275,0.0000000,0.0000000,0.0000000,0.0229960,0.0002009,0.0000000,0.0000000,0.0000201,0.0000000,0.0000000,0.0000000,0.0002009,0.0000000,0.0000000,0.0000201,0.0000000,0.0000000,0.0000000,0.0002009,0.0000000,0.0000000,0.0000201,0.0000201,0.0000000,0.0000000,0.0000040,0.0000000,0.0000000,0.0000000,0.0000201,0.0000000,0.0000000,0.0000040,0.0000000,0.0000000,0.0000000,0.0000201,0.0000000,0.0000000,0.0000040
52.7228580,1.0001000,,-0.9745628,-0.2240995,-0.0000886,0.0025914,-0.0001862,-0.0042149,0.0005708,,,,0.9670991,-4.2226515,-11.5940275,0.0000000,0.0000000,0.0000000,0.0200020,0.0002017,0.0000000,0.0000000,0.0000202,0.0000000,0.0000000,0.0000000,0.0002017,0.0000000,0.0000000,0.0000202,0.0000000,0.0000000,0.0000000,0.0002017,0.0000000,0.0000000,0.0000202,0.0000202,0.0000000,0.0000000,0.0000040,0.0000000,0.0000000,0.0000000,0.0000202,0.0000000,0.0000000,0.0000040,0.0000000,0.0000000,0.0000000,0.0000202,0.0000000,0.0000000,0.0000040
52.7440940,1.0005500,,-0.9745628,-0.2240995,-0.0000756,0.0025878,-0.0004822,-0.0064333,-0.0019119,,,,0.9670991,-4.2226515,-11.5940275,0.0000000,0.0000000,0.0000000,0.0200110,0.0002025,0.0000000,0.0000000,0.0000202,0.0000000,0.0000000,0.0000000,0.0002025,0.0000000,0.0000000,0.0000202,0.0000000,0.0000000,0.0000000,0.0002025,0.0000000,0.0000000,0.0000202,0.0000202,0.0000000,0.0000000,0.0000040,0.0000000,0.0000000,0.0000000,0.0000202,0.0000000,0.0000000,0.0000040,0.0000000,0.0000000,0.0000000,0.0000202,0.0000000,0.0000000,0.0000040
52.7626280,0.9994500,,-0.9745628,-0.2240995,-0.0000670,0.0025953,0.0035202,0.0037032,0.0051476,,,,0.9670991,-4.2226515,-11.5940275,0.0000000,0.0000000,0.0000000,0.0199890,0.0002033,0.0000000,0.0000000,0.0000203,0.0000000,0.0000000,0.0000000,0.0002033,0.0000000,0.0000000,0.0000203,0.0000000,0.0000000,0.0000000,0.0002033,0.0000000,0.0000000,0.0000203,0.0000203,0.0000000,0.0000000,0.0000040,0.0000000,0.0000000,0.0000000,0.0000203,0.0000000,0.0000000,0.0000040,0.0000000,0.0000000,0.0000000,0.0000203,0.0000000,0.0000000,0.0000040
52.7783300,,1.0000100,-0.9745628,-0.2240995,-0.0000670,0.0025953,,,,0.0000000,0.0000000,0.0000000,0.9670991,-4.2226515,-11.5940275,0.0000000,0.0000000,0.0000000,0.1000010,0.0001993,0.0000000,0.0000000,0.0000199,0.0000000,0.0000000,0.0000000,0.0001993,0.0000000,0.0000000,0.0000199,0.0000000,0.0000000,0.0000000,0.0001993,0.0000000,0.0000000,0.0000199,0.0000199,0.0000000,0.0000000,0.0000040,0.0000000,0.0000000,0.0000000,0.0000199,0.0000000,0.0000000,0.0000040,0.0000000,0.0000000,0.0000000,0.0000199,0.0000000,0.0000000,0.0000040
52.7910130,0.9999500,,-0.9745628,-0.2240995,-0.0000570,0.0025874,0.0040718,0.0048500,0.0037945,,,,0.9670991,-4.2226515,-11.5940275,0.0000000,0.0000000,0.0000000,0.0199990,0.0002001,0.0000000,0.0000000,0.0000200,0.0000000,0.0000000,0.0000000,0.0002001,0.0000000,0.0000000,0.0000200,0.0000000,0.0000000,0.0000000,0.0002001,0.0000000,0.0000000,0.0000200,0.0000200,0.0000000,0.0000000,0.0000040,0.0000000,0.0000000,0.0000000,0.0000200,0.0000000,0.0000000,0.0000040,0.0000000,0.0000000,0.0000000,0.0000200,0.0000000,0.0000000,0.0000040
52.8057520,1.1500000,,-0.9745628,-0.2240995,-0.0000525,0.0025927,0.0048283,-0.0021298,0.0021414,,,,0.9670991,-4.2226515,-11.5940275,0.0000000,0.0000000,0.0000000,0.0230000,0.0002010,0.0000000,0.0000000,0.0000201,0.0000000,0.0000000,0.0000000,0.0002010,0.0000000,0.0000000,0.0000201,0.0000000,0.0000000,0.0000000,0.0002010,0.0000000,0.0000000,0.0000201,0.0000201,0.0000000,0.0000000,0.0000040,0.0000000,0.0000000,0.0000000,0.0000201,0.0000000,0.0000000,0.0000040,0.0000000,0.0000000,0.0000000,0.0000201,0.0000000,0.0000000,0.0000040
52.8254610,1.0001501,,-0.9745629,-0.2240995,-0.0000522,0.0025809,0.0017885,-0.0019880,-0.0025914,,,,0.9670991,-4.2226515,-11.5940275,0.0000000,0.0000000,0.0000000,0.0200030,0.0002018,0.0000000,0.0000000,0.0000202,0.0000000,0.0000000,0.0000000,0.0002018,0.0000000,0.0000000,0.0000202,0.0000000,0.0000000,0.0000000,0.0002018,0.0000000,0.0000000,0.0000202,0.0000202,0.0000000,0.0000000,0.0000040,0.0000000,0.0000000,0.0000000,0.0000202,0.0000000,0.0000000,0.0000040,0.0000000,0.0000000,0.0000000,0.0000202,0.0000000,0.0000000,0.0000040
52.8455250,1.0006500,,-0.9745629,-0.2240995,-0.0000456,0.0025841,0.0049226,-0.0045798,0.0048078,,,,0.9670991,-4.2226515,-11.5940275,0.0000000,0.0000000,0.0000000,0.0200130,0.0002026,0.0000000,0.0000000,0.0000202,0.0000000,0.0000000,0.0000000,0.0002026,0.0000000,0.0000000,0.0000202,0.0000000,0.0000000,0.0000000,0.0002026,0.0000000,0.0000000,0.0000202,0.0000202,0.0000000,0.0000000,0.0000040,0.0000000,0.0000000,0.0000000,0.0000202,0.0000000,0.0000000,0.0000040,0.0000000,0.0000000,0.0000000,0.0000202,0.0000000,0.0000000,0.0000040
52.8686350,,1.0100000,-0.9745628,-0.2240996,-0.0001007,0.0025806,,,,0.0000000,0.0000000,0.0000000,0.9670991,-4.2226515,-11.5940275,0.0000000,0.0000000,0.0000000,0.1010000,0.0001986,0.0000000,0.0000000,0.0000198,0.0000000,0.0000000,0.0000000,0.0001986,0.0000000,0.0000000,0.0000198,0.0000000,0.0000000,0.0000000,0.0001986,0.0000000,0.0000000,0.0000198,0.0000198,0.0000000,0.0000000,0.0000040,0.0000000,0.0000000,0.0000000,0.0000198,0.0000000,0.0000000,0.0000040,0.0000000,0.0000000,0.0000000,0.0000198,0.0000000,0.0000000,0.0000040
52.8809770,1.0995500,,-0.9745628,-0.2240996,-0.0001007,0.0025806,0.0100373,0.0065373,0.0038687,,,,0.9670991,-4.2226515,-11.5940275,0.0000000,0.0000000,0.0000000,0.0219910,0.0001995,0.0000000,0.0000000,0.0000199,0.0000000,0.0000000,0.0000000,0.0001995,0.0000000,0.0000000,0.0000199,0.0000000,0.0000000,0.0000000,0.0001995,0.0000000,0.0000000,0.0000199,0.0000199,0.0000000,0.0000000,0.0000040,0.0000000,0.0000000,0.0000000,0.0000199,0.0000000,0.0000000,0.0000040,0.0000000,0.0000000,0.0000000,0.0000199,0.0000000,0.0000000,0.0000040
52.8956540,1.3996500,,-0.9745628,-0.2240997,-0.0001158,0.0025771,0.0026078,-0.0020643,-0.0000188,,,,0.9670991,-4.2226515,-11.5940275,0.0000000,0.0000000,0.0000000,0.0279930,0.0002006,0.0000000,0.0000000,0.0000200,0.0000000,0.0000000,0.0000000,0.0002006,0.0000000,0.0000000,0.0000200,0.0000000,0.0000000,0.0000000,0.0002006,0.0000000,0.0000000,0.0000200,0.0000200,0.0000000,0.0000000,0.0000040,0.0000000,0.0000000,0.0000000,0.0000200,0.0000000,0.0000000,0.0000040,0.0000000,0.0000000,0.0000000,0.0000200,0.0000000,0.0000000,0.0000040
52.9156780,1.0003500,,-0.9745629,-0.2240997,-0.0001246,0.0025588,0.0028069,0.0021493,-0.0000094,,,,0.9670991,-4.2226515,-11.5940275,0.0000000,0.0000000,0.0000000,0.0200070,0.0002014,0.0000000,0.0000000,0.0000201,0.0000000,0.0000000,0.0000000,0.0002014,0.0000000,0.0000000,0.0000201,0.0000000,0.0000000,0.0000000,0.0002014,0.0000000,0.0000000,0.0000201,0.0000201,0.0000000,0.0000000,0.0000040,0.0000000,0.0000000,0.0000000,0.0000201,0.0000000,0.0000000,0.0000040,0.0000000,0.0000000,0.0000000,0.0000201,0.0000000,0.0000000,0.0000040
52.9371180,1.0001000,,-0.9745629,-0.2240997,-0.0001308,0.0025600,0.0026547,-0.0025569,0.0043898,,,,0.9670991,-4.2226515,-11.5940275,0.0000000,0.0000000,0.0000000,0.0200020,0.0002022,0.0000000,0.0000000,0.0000202,0.0000000,0.0000000,0.0000000,0.0002022,0.0000000,0.0000000,0.0000202,0.0000000,0.0000000,0.0000000,0.0002022,0.0000000,0.0000000,0.0000202,0.0000202,0.0000000,0.0000000,0.0000040,0.0000000,0.0000000,0.0000000,0.0000202,0.0000000,0.0000000,0.0000040,0.0000000,0.0000000,0.0000000,0.0000202,0.0000000,0.0000000,0.0000040
52.9556560,0.9999500,,-0.9745628,-0.2240997,-0.0001265,0.0025796,0.0011213,-0.0085340,0.0048805,,,,0.9670991,-4.2226515,-11.5940275,0.0000000,0.0000000,0.0000000,0.0199990,0.0002030,0.0000000,0.0000000,0.0000203,0.0000000,0.0000000,0.0000000,0.0002030,0.0000000,0.0000000,0.0000203,0.0000000,0.0000000,0.0000000,0.0002030,0.0000000,0.0000000,0.0000203,0.0000203,0.0000000,0.0000000,0.0000040,0.0000000,0.0000000,0.0000000,0.0000203,0.0000000,0.0000000,0.0000040,0.0000000,0.0000000,0.0000000,0.0000203,0.0000000,0.0000000,0.0000040
52.9716790,,1.0000299,-0.9745628,-0.2240997,-0.0001265,0.0025796,,,,0.0000000,0.0000000,0.0000000,0.9670991,-4.2226515,-11.5940275,0.0000000,0.0000000,0.0000000,0.1000030,0.0001990,0.0000000,0.0000000,0.0000199,0.0000000,0.0000000,0.0000000,0.0001990,0.0000000,0.0000000,0.0000199,0.0000000,0.0000000,0.0000000,0.0001990,0.0000000,0.0000000,0.0000199,0.0000199,0.0000000,0.0000000,0.0000040,0.0000000,0.0000000,0.0000000,0.0000199,0.0000000,0.0000000,0.0000040,0.0000000,0.0000000,0.0000000,0.0000199,0.0000000,0.0000000,0.0000040
52.9852840,0.9996500,,-0.9745628,-0.2240997,-0.0001430,0.0025899,0.0093497,-0.0064032,0.0036609,,,,0.9670991,-4.2226515,-11.5940275,0.0000000,0.0000000,0.0000000,0.0199930,0.0001998,0.0000000,0.0000000,0.0000200,0.0000000,0.0000000,0.0000000,0.0001998,0.0000000,0.0000000,0.0000200,0.0000000,0.0000000,0.0000000,0.0001998,0.0000000,0.0000000,0.0000200,0.0000200,0.0000000,0.0000000,0.0000040,0.0000000,0.0000000,0.0000000,0.0000200,0.0000000,0.0000000,0.0000040,0.0000000,0.0000000,0.0000000,0.0000200,0.0000000,0.0000000,0.0000040
52.9985160,1.1498500,,-0.9745628,-0.2240997,-0.0001413,0.0025833,0.0056743,-0.0009586,0.0054926,,,,0.9670991,-4.2226515,-11.5940275,0.0000000,0.0000000,0.0000000,0.0229970,0.0002007,0.0000000,0.0000000,0.0000201,0.0000000,0.0000000,0.0000000,0.0002007,0.0000000,0.0000000,0.0000201,0.0000000,0.0000000,0.0000000,0.0002007,0.0000000,0.0000000,0.0000201,0.0000201,0.0000000,0.0000000,0.0000040,0.0000000,0.0000000,0.0000000,0.0000201,0.0000000,0.0000000,0.0000040,0.0000000,0.0000000,0.0000000,0.0000201,0.0000000,0.0000000,0.0000040
53.0197190,1.0502501,,-0.9745628,-0.2240997,-0.0001356,0.0025815,0.0043325,0.0000548,0.0088498,,,,0.9670991,-4.2226515,-11.5940275,0.0000000,0.0000000,0.0000000,0.0210050,0.0002015,0.0000000,0.0000000,0.0000201,0.0000000,0.0000000,0.0000000,0.0002015,0.0000000,0.0000000,0.0000201,0.0000000,0.0000000,0.0000000,0.0002015,0.0000000,0.0000000,0.0000201,0.0000201,0.0000000,0.0000000,0.0000040,0.0000000,0.0000000,0.0000000,0.0000201,0.0000000,0.0000000,0.0000040,0.0000000,0.0000000,0.0000000,0.0000201,0.0000000,0.0000000,0.0000040
53.0421160,1.0502001,,-0.9745629,-0.2240998,-0.0001372,0.0025503,0.0034251,-0.0002320,0.0058897,,,,0.9670991,-4.2226515,-11.5940275,0.0000000,0.0000000,0.0000000,0.0210040,0.0002024,0.0000000,0.0000000,0.0000202,0.0000000,0.0000000,0.0000000,0.0002024,0.0000000,0.0000000,0.0000202,0.0000000,0.0000000,0.0000000,0.0002024,0.0000000,0.0000000,0.0000202,0.0000202,0.0000000,0.0000000,0.0000040,0.0000000,0.0000000,0.0000000,0.0000202,0.0000000,0.0000000,0.0000040,0.0000000,0.0000000,0.0000000,0.0000202,0.0000000,0.0000000,0.0000040
53.0608000,1.0004500,,-0.9745629,-0.2240998,-0.0001373,0.0025453,0.0054052,0.0016006,0.0002593,,,,0.9670991,-4.2226515,-11.5940275,0.0000000,0.0000000,0.0000000,0.0200090,0.0002032,0.0000000,0.0000000,0.0000203,0.0000000,0.0000000,0.0000000,0.0002032,0.0000000,0.0000000,0.0000203,0.0000000,0.0000000,0.0000000,0.0002032,0.0000000,0.0000000,0.0000203,0.0000203,0.0000000,0.0000000,0.0000040,0.0000000,0.0000000,0.0000000,0.0000203,0.0000000,0.0000000,0.0000040,0.0000000,0.0000000,0.0000000,0.0000203,0.0000000,0.0000000,0.0000040
53.0766870,,1.0199599,-0.9745629,-0.2240998,-0.0001373,0.0025453,,,,0.0000000,0.0000000,0.0000000,0.9670991,-4.2226515,-11.5940275,0.0000000,0.0000000,0.0000000,0.1019960,0.0001991,0.0000000,0.0000000,0.0000199,0.0000000,0.0000000,0.0000000,0.0001991,0.0000000,0.0000000,0.0000199,0.0000000,0.0000000,0.0000000,0.0001991,0.0000000,0.0000000,0.0000199,0.0000199,0.0000000,0.0000000,0.0000040,0.0000000,0.0000000,0.0000000,0.0000199,0.0000000,0.0000000,0.0000040,0.0000000,0.0000000,0.0000000,0.0000199,0.0000000,0.0000000,0.0000040
53.0902930,0.9997000,,-0.9745629,-0.2240997,-0.0001311,0.0025430,-0.0001813,-0.0006569,0.0023269,,,,0.9670991,-4.2226515,-11.5940275,0.0000000,0.0000000,0.0000000,0.0199940,0.0001999,0.0000000,0.0000000,0.0000200,0.0000000,0.0000000,0.0000000,0.0001999,0.0000000,0.0000000,0.0000200,0.0000000,0.0000000,0.0000000,0.0001999,0.0000000,0.0000000,0.0000200,0.0000200,0.0000000,0.0000000,0.0000040,0.0000000,0.0000000,0.0000000,0.0000200,0.0000000,0.0000000,0.0000040,0.0000000,0.0000000,0.0000000,0.0000200,0.0000000,0.0000000,0.0000040
53.1034260,1.1494499,,-0.9745628,-0.2240997,-0.0001149,0.0025785,-0.0002814,-0.0017017,0.0009193,,,,0.9670991,-4.2226515,-11.5940275,0.0000000,0.0000000,0.0000000,0.0229890,0.0002008,0.0000000,0.0000000,0.0000201,0.0000000,0.0000000,0.0000000,0.0002008,0.0000000,0.0000000,0.0000201,0.0000000,0.0000000,0.0000000,0.0002008,0.0000000,0.0000000,0.0000201,0.0000201,0.0000000,0.0000000,0.0000040,0.0000000,0.0000000,0.0000000,0.0000201,0.0000000,0.0000000,0.0000040,0.0000000,0.0000000,0.0000000,0.0000201,0.0000000,0.0000000,0.0000040
53.1247380,1.0501001,,-0.9745628,-0.2240996,-0.0000932,0.0025892,-0.0003009,-0.0012552,-0.0017376,,,,0.9670991,-4.2226515,-11.5940275,0.0000000,0.0000000,0.0000000,0.0210020,0.0002017,0.0000000,0.0000000,0.0000202,0.0000000,0.0000000,0.0000000,0.0002017,0.0000000,0.0000000,0.0000202,0.0000000,0.0000000,0.0000000,0.0002017,0.0000000,0.0000000,0.0000202,0.0000202,0.0000000,0.0000000,0.0000040,0.0000000,0.0000000,0.0000000,0.0000202,0.0000000,0.0000000,0.0000040,0.0000000,0.0000000,0.0000000,0.0000202,0.0000000,0.0000000,0.0000040
53.1471120,1.0503000,,-0.9745629,-0.2240996,-0.0000675,0.0025665,0.0016806,-0.0030385,-0.0037985,,,,0.9670991,-4.2226515,-11.5940275,0.0000000,0.0000000,0.0000000,0.0210060,0.0002025,0.0000000,0.0000000,0.0000202,0.0000000,0.0000000,0.0000000,0.0002025,0.0000000,0.0000000,0.0000202,0.0000000,0.0000000,0.0000000,0.0002025,0.0000000,0.0000000,0.0000202,0.0000202,0.0000000,0.0000000,0.0000040,0.0000000,0.0000000,0.0000000,0.0000202,0.0000000,0.0000000,0.0000040,0.0000000,0.0000000,0.0000000,0.0000202,0.0000000,0.0000000,0.0000040
53.1657030,1.0001501,,-0.9745629,-0.2240995,-0.0000362,0.0025555,-0.0046147,-0.0012370,-0.0031199,,,,0.9670991,-4.2226515,-11.5940275,0.0000000,0.0000000,0.0000000,0.0200030,0.0002033,0.0000000,0.0000000,0.0000203,0.0000000,0.0000000,0.0000000,0.0002033,0.0000000,0.0000000,0.0000203,0.0000000,0.0000000,0.0000000,0.0002033,0.0000000,0.0000000,0.0000203,0.0000203,0.0000000,0.0000000,0.0000040,0.0000000,0.0000000,0.0000000,0.0000203,0.0000000,0.0000000,0.0000040,0.0000000,0.0000000,0.0000000,0.0000203,0.0000000,0.0000000,0.0000040
53.1817340,,1.0200100,-0.9745629,-0.2240995,-0.0000362,0.0025555,,,,0.0000000,0.0000000,0.0000000,0.9670991,-4.2226515,-11.5940275,0.0000000,0.0000000,0.0000000,0.1020010,0.0001993,0.0000000,0.0000000,0.0000199,0.0000000,0.0000000,0.0000000,0.0001993,0.0000000,0.0000000,0.0000199,0.0000000,0.0000000,0.0000000,0.0001993,0.0000000,0.0000000,0.0000199,0.0000199,0.0000000,0.0000000,0.0000040,0.0000000,0.0000000,0.0000000,0.0000199,0.0000000,0.0000000,0.0000040,0.0000000,0.0000000,0.0000000,0.0000199,0.0000000,0.0000000,0.0000040
53.1946960,1.0995500,,-0.9745630,-0.2240995,-0.0000254,0.0025324,-0.0021471,-0.0042730,-0.0000951,,,,0.9670991,-4.2226515,-11.5940275,0.0000000,0.0000000,0.0000000,0.0219910,0.0002002,0.0000000,0.0000000,0.0000200,0.0000000,0.0000000,0.0000000,0.0002002,0.0000000,0.0000000,0.0000200,0.0000000,0.0000000,0.0000000,0.0002002,0.0000000,0.0000000,0.0000200,0.0000200,0.0000000,0.0000000,0.0000040,0.0000000,0.0000000,0.0000000,0.0000200,0.0000000,0.0000000,0.0000040,0.0000000,0.0000000,0.0000000,0.0000200,0.0000000,0.0000000,0.0000040
53.2076860,0.9999500,,-0.9745630,-0.2240995,-0.0000269,0.0025295,0.0039542,0.0030057,0.0058118,,,,0.9670991,-4.2226515,-11.5940275,0.0000000,0.0000000,0.0000000,0.0199990,0.0002010,0.0000000,0.0000000,0.0000201,0.0000000,0.0000000,0.0000000,0.0002010,0.0000000,0.0000000,0.0000201,0.0000000,0.0000000,0.0000000,0.0002010,0.0000000,0.0000000,0.0000201,0.0000201,0.0000000,0.0000000,0.0000040,0.0000000,0.0000000,0.0000000,0.0000201,0.0000000,0.0000000,0.0000040,0.0000000,0.0000000,0.0000000,0.0000201,0.0000000,0.0000000,0.0000040
53.2275970,1.0003999,,-0.9745630,-0.2240995,-0.0000223,0.0025330,-0.0015324,0.0071486,0.0114508,,,,0.9670991,-4.2226515,-11.5940275,0.0000000,0.0000000,0.0000000,0.0200080,0.0002018,0.0000000,0.0000000,0.0000202,0.0000000,0.0000000,0.0000000,0.0002018,0.0000000,0.0000000,0.0000202,0.0000000,0.0000000,0.0000000,0.0002018,0.0000000,0.0000000,0.0000202,0.0000202,0.0000000,0.0000000,0.0000040,0.0000000,0.0000000,0.0000000,0.0000202,0.0000000,0.0000000,0.0000040,0.0000000,0.0000000,0.0000000,0.0000202,0.0000000,0.0000000,0.0000040
53.2485270,1.0497000,,-0.9745630,-0.2240995,-0.0000367,0.0025321,-0.0062594,-0.0012932,0.0032840,,,,0.9670991,-4.2226515,-11.5940275,0.0000000,0.0000000,0.0000000,0.0209940,0.0002026,0.0000000,0.0000000,0.0000202,0.0000000,0.0000000,0.0000000,0.0002026,0.0000000,0.0000000,0.0000202,0.0000000,0.0000000,0.0000000,0.0002026,0.0000000,0.0000000,0.0000202,0.0000202,0.0000000,0.0000000,0.0000040,0.0000000,0.0000000,0.0000000,0.0000202,0.0000000,0.0000000,0.0000040,0.0000000,0.0000000,0.0000000,0.0000202,0.0000000,0.0000000,0.0000040
53.2685080,0.9999500,,-0.9745630,-0.2240995,-0.0000276,0.0025388,-0.0049379,-0.0006085,-0.0000670,,,,0.9670991,-4.2226515,-11.5940275,0.0000000,0.0000000,0.0000000,0.0199990,0.0002034,0.0000000,0.0000000,0.0000203,0.0000000,0.0000000,0.0000000,0.0002034,0.0000000,0.0000000,0.0000203,0.0000000,0.0000000,0.0000000,0.0002034,0.0000000,0.0000000,0.0000203,0.0000203,0.0000000,0.0000000,0.0000040,0.0000000,0.0000000,0.0000000,0.0000203,0.0000000,0.0000000,0.0000040,0.0000000,0.0000000,0.0000000,0.0000203,0.0000000,0.0000000,0.0000040
53.2844510,,1.0199900,-0.9745630,-0.2240995,-0.0000276,0.0025388,,,,0.0000000,0.0000000,0.0000000,0.9670991,-4.2226515,-11.5940275,0.0000000,0.0000000,0.0000000,0.1019990,0.0001994,0.0000000,0.0000000,0.0000199,0.0000000,0.0000000,0.0000000,0.0001994,0.0000000,0.0000000,0.0000199,0.0000000,0.0000000,0.0000000,0.0001994,0.0000000,0.0000000,0.0000199,0.0000199,0.0000000,0.0000000,0.0000040,0.0000000,0.0000000,0.0000000,0.0000199,0.0000000,0.0000000,0.0000040,0.0000000,0.0000000,0.0000000,0.0000199,0.0000000,0.0000000,0.0000040
53.2975190,1.0999500,,-0.9745630,-0.2240995,-0.0000280,0.0025360,-0.0055054,-0.0017462,-0.0012542,,,,0.9670991,-4.2226515,-11.5940275,0.0000000,0.0000000,0.0000000,0.0219990,0.0002002,0.0000000,0.0000000,0.0000200,0.0000000,0.0000000,0.0000000,0.0002002,0.0000000,0.0000000,0.0000200,0.0000000,0.0000000,0.0000000,0.0002002,0.0000000,0.0000000,0.0000200,0.0000200,0.0000000,0.0000000,0.0000040,0.0000000,0.0000000,0.0000000,0.0000200,0.0000000,0.0000000,0.0000040,0.0000000,0.0000000,0.0000000,0.0000200,0.0000000,0.0000000,0.0000040
53.3106530,1.0000501,,-0.9745629,-0.2240995,-0.0000440,0.0025679,0.0036865,-0.0027423,-0.0055099,,,,0.9670991,-4.2226515,-11.5940275,0.0000000,0.0000000,0.0000000,0.0200010,0.0002010,0.0000000,0.0000000,0.0000201,0.0000000,0.0000000,0.0000000,0.0002010,0.0000000,0.0000000,0.0000201,0.0000000,0.0000000,0.0000000,0.0002010,0.0000000,0.0000000,0.0000201,0.0000201,0.0000000,0.0000000,0.0000040,0.0000000,0.0000000,0.0000000,0.0000201,0.0000000,0.0000000,0.0000040,0.0000000,0.0000000,0.0000000,0.0000201,0.0000000,0.0000000,0.0000040
53.3307970,1.0004500,,-0.9745628,-0.2240996,-0.0000684,0.0025855,0.0055664,-0.0052011,-0.0069053,,,,0.9670991,-4.2226515,-11.5940275,0.0000000,0.0000000,0.0000000,0.0200090,0.0002018,0.0000000,0.0000000,0.0000202,0.0000000,0.0000000,0.0000000,0.0002018,0.0000000,0.0000000,0.0000202,0.0000000,0.0000000,0.0000000,0.0002018,0.0000000,0.0000000,0.0000202,0.0000202,0.0000000,0.0000000,0.0000040,0.0000000,0.0000000,0.0000000,0.0000202,0.0000000,0.0000000,0.0000040,0.0000000,0.0000000,0.0000000,0.0000202,0.0000000,0.0000000,0.0000040
53.3503880,0.9996500,,-0.9745628,-0.2240997,-0.0000990,0.0025975,0.0081772,0.0065089,-0.0036968,,,,0.9670991,-4.2226515,-11.5940275,0.0000000,0.0000000,0.0000000,0.0199930,0.0002027,0.0000000,0.0000000,0.0000202,0.0000000,0.0000000,0.0000000,0.0002027,0.0000000,0.0000000,0.0000202,0.0000000,0.0000000,0.0000000,0.0002027,0.0000000,0.0000000,0.0000202,0.0000202,0.0000000,0.0000000,0.0000040,0.0000000,0.0000000,0.0000000,0.0000202,0.0000000,0.0000000,0.0000040,0.0000000,0.0000000,0.0000000,0.0000202,0.0000000,0.0000000,0.0000040
53.3706680,1.0003999,,-0.9745627,-0.2240997,-0.0001071,0.0026168,0.0014336,0.0001875,-0.0072195,,,,0.9670991,-4.2226515,-11.5940275,0.0000000,0.0000000,0.0000000,0.0200080,0.0002035,0.0000000,0.0000000,0.0000203,0.0000000,0.0000000,0.0000000,0.0002035,0.0000000,0.0000000,0.0000203,0.0000000,0.0000000,0.0000000,0.0002035,0.0000000,0.0000000,0.0000203,0.0000203,0.0000000,0.0000000,0.0000040,0.0000000,0.0000000,0.0000000,0.0000203,0.0000000,0.0000000,0.0000040,0.0000000,0.0000000,0.0000000,0.0000203,0.0000000,0.0000000,0.0000040
53.3881020,,1.0000900,-0.9745627,-0.2240997,-0.0001071,0.0026168,,,,0.0000000,0.0000000,0.0000000,0.9670991,-4.2226515,-11.5940275,0.0000000,0.0000000,0.0000000,0.1000090,0.0001994,0.0000000,0.0000000,0.0000199,0.0000000,0.0000000,0.0000000,0.0001994,0.0000000,0.0000000,0.0000199,0.0000000,0.0000000,0.0000000,0.0001994,0.0000000,0.0000000,0.0000199,0.0000199,0.0000000,0.0000000,0.0000040,0.0000000,0.0000000,0.0000000,0.0000199,0.0000000,0.0000000,0.0000040,0.0000000,0.0000000,0.0000000,0.0000199,0.0000000,0.0000000,0.0000040
53.4015390,0.9995000,,-0.9745627,-0.2240997,-0.0001029,0.0026153,-0.0024036,0.0013984,-0.0045863,,,,0.9670991,-4.2226515,-11.5940275,0.0000000,0.0000000,0.0000000,0.0199900,0.0002002,0.0000000,0.0000000,0.0000200,0.0000000,0.0000000,0.0000000,0.0002002,0.0000000,0.0000000,0.0000200,0.0000000,0.0000000,0.0000000,0.0002002,0.0000000,0.0000000,0.0000200,0.0000200,0.0000000,0.0000000,0.0000040,0.0000000,0.0000000,0.0000000,0.0000200,0.0000000,0.0000000,0.0000040,0.0000000,0.0000000,0.0000000,0.0000200,0.0000000,0.0000000,0.0000040
53.4148050,1.1999500,,-0.9745627,-0.2240996,-0.0000884,0.0026248,-0.0074732,0.0042316,-0.0042463,,,,0.9670991,-4.2226515,-11.5940275,0.0000000,0.0000000,0.0000000,0.0239990,0.0002012,0.0000000,0.0000000,0.0000201,0.0000000,0.0000000,0.0000000,0.0002012,0.0000000,0.0000000,0.0000201,0.0000000,0.0000000,0.0000000,0.0002012,0.0000000,0.0000000,0.0000201,0.0000201,0.0000000,0.0000000,0.0000040,0.0000000,0.0000000,0.0000000,0.0000201,0.0000000,0.0000000,0.0000040,0.0000000,0.0000000,0.0000000,0.0000201,0.0000000,0.0000000,0.0000040
53.4360920,1.0001000,,-0.9745626,-0.2240996,-0.0000871,0.0026662,-0.0000287,-0.0042929,-0.0052970,,,,0.9670991,-4.2226515,-11.5940275,0.0000000,0.0000000,0.0000000,0.0200020,0.0002020,0.0000000,0.0000000,0.0000202,0.0000000,0.0000000,0.0000000,0.0002020,0.0000000,0.0000000,0.0000202,0.0000000,0.0000000,0.0000000,0.0002020,0.0000000,0.0000000,0.0000202,0.0000202,0.0000000,0.0000000,0.0000040,0.0000000,0.0000000,0.0000000,0.0000202,0.0000000,0.0000000,0.0000040,0.0000000,0.0000000,0.0000000,0.0000202,0.0000000,0.0000000,0.0000040
53.4547220,1.0003500,,-0.9745626,-0.2240995,-0.0000688,0.0026772,-0.0043250,-0.0017345,-0.0019161,,,,0.9670991,-4.2226515,-11.5940275,0.0000000,0.0000000,0.0000000,0.0200070,0.0002028,0.0000000,0.0000000,0.0000203,0.0000000,0.0000000,0.0000000,0.0002028,0.0000000,0.0000000,0.0000203,0.0000000,0.0000000,0.0000000,0.0002028,0.0000000,0.0000000,0.0000203,0.0000203,0.0000000,0.0000000,0.0000040,0.0000000,0.0000000,0.0000000,0.0000203,0.0000000,0.0000000,0.0000040,0.0000000,0.0000000,0.0000000,0.0000203,0.0000000,0.0000000,0.0000040
53.4759310,,1.0099100,-0.9745626,-0.2240995,-0.0000605,0.0026683,,,,0.0000000,0.0000000,0.0000000,0.9670991,-4.2226515,-11.5940275,0.0000000,0.0000000,0.0000000,0.1009910,0.0001987,0.0000000,0.0000000,0.0000199,0.0000000,0.0000000,0.0000000,0.0001987,0.0000000,0.0000000,0.0000199,0.0000000,0.0000000,0.0000000,0.0001987,0.0000000,0.0000000,0.0000199,0.0000199,0.0000000,0.0000000,0.0000040,0.0000000,0.0000000,0.0000000,0.0000199,0.0000000,0.0000000,0.0000040,0.0000000,0.0000000,0.0000000,0.0000199,0.0000000,0.0000000,0.0000040
53.4894850,1.0002501,,-0.9745626,-0.2240995,-0.0000605,0.0026683,-0.0047565,-0.0014547,-0.0038877,,,,0.9670991,-4.2226515,-11.5940275,0.0000000,0.0000000,0.0000000,0.0200050,0.0001995,0.0000000,0.0000000,0.0000199,0.0000000,0.0000000,0.0000000,0.0001995,0.0000000,0.0000000,0.0000199,0.0000000,0.0000000,0.0000000,0.0001995,0.0000000,0.0000000,0.0000199,0.0000199,0.0000000,0.0000000,0.0000040,0.0000000,0.0000000,0.0000000,0.0000199,0.0000000,0.0000000,0.0000040,0.0000000,0.0000000,0.0000000,0.0000199,0.0000000,0.0000000,0.0000040
53.5027770,1.3992500,,-0.9745626,-0.2240995,-0.0000453,0.0026930,-0.0037439,0.0006993,0.0026948,,,,0.9670991,-4.2226515,-11.5940275,0.0000000,0.0000000,0.0000000,0.0279850,0.0002007,0.0000000,0.0000000,0.0000200,0.0000000,0.0000000,0.0000000,0.0002007,0.0000000,0.0000000,0.0000200,0.0000000,0.0000000,0.0000000,0.0002007,0.0000000,0.0000000,0.0000200,0.0000200,0.0000000,0.0000000,0.0000040,0.0000000,0.0000000,0.0000000,0.0000200,0.0000000,0.0000000,0.0000040,0.0000000,0.0000000,0.0000000,0.0000200,0.0000000,0.0000000,0.0000040
53.5227890,1.0002000,,-0.9745625,-0.2240995,-0.0000472,0.0027102,-0.0047253,0.0047061,0.0028123,,,,0.9670991,-4.2226515,-11.5940275,0.0000000,0.0000000,0.0000000,0.0200040,0.0002015,0.0000000,0.0000000,0.0000201,0.0000000,0.0000000,0.0000000,0.0002015,0.0000000,0.0000000,0.0000201,0.0000000,0.0000000,0.0000000,0.0002015,0.0000000,0.0000000,0.0000201,0.0000201,0.0000000,0.0000000,0.0000040,0.0000000,0.0000000,0.0000000,0.0000201,0.0000000,0.0000000,0.0000040,0.0000000,0.0000000,0.0000000,0.0000201,0.0000000,0.0000000,0.0000040
53.5427900,1.0005001,,-0.9745625,-0.2240995,-0.0000575,0.0027258,-0.0020651,0.0047715,0.0033593,,,,0.9670991,-4.2226515,-11.5940275,0.0000000,0.0000000,0.0000000,0.0200100,0.0002023,0.0000000,0.0000000,0.0000202,0.0000000,0.0000000,0.0000000,0.0002023,0.0000000,0.0000000,0.0000202,0.0000000,0.0000000,0.0000000,0.0002023,0.0000000,0.0000000,0.0000202,0.0000202,0.0000000,0.0000000,0.0000040,0.0000000,0.0000000,0.0000000,0.0000202,0.0000000,0.0000000,0.0000040,0.0000000,0.0000000,0.0000000,0.0000202,0.0000000,0.0000000,0.0000040
53.5626630,0.9996500,,-0.9745624,-0.2240996,-0.0000813,0.0027261,0.0009435,0.0023400,0.0068066,,,,0.9670991,-4.2226515,-11.5940275,0.0000000,0.0000000,0.0000000,0.0199930,0.0002031,0.0000000,0.0000000,0.0000203,0.0000000,0.0000000,0.0000000,0.0002031,0.0000000,0.0000000,0.0000203,0.0000000,0.0000000,0.0000000,0.0002031,0.0000000,0.0000000,0.0000203,0.0000203,0.0000000,0.0000000,0.0000040,0.0000000,0.0000000,0.0000000,0.0000203,0.0000000,0.0000000,0.0000040,0.0000000,0.0000000,0.0000000,0.0000203,0.0000000,0.0000000,0.0000040
53.5785270,,1.0000900,-0.9745624,-0.2240996,-0.0000813,0.0027261,,,,0.0000000,0.0000000,0.0000000,0.9670991,-4.2226515,-11.5940275,0.0000000,0.0000000,0.0000000,0.1000090,0.0001990,0.0000000,0.0000000,0.0000199,0.0000000,0.0000000,0.0000000,0.0001990,0.0000000,0.0000000,0.0000199,0.0000000,0.0000000,0.0000000,0.0001990,0.0000000,0.0000000,0.0000199,0.0000199,0.0000000,0.0000000,0.0000040,0.0000000,0.0000000,0.0000000,0.0000199,0.0000000,0.0000000,0.0000040,0.0000000,0.0000000,0.0000000,0.0000199,0.0000000,0.0000000,0.0000040
53.5909140,1.0002000,,-0.9745625,-0.2240996,-0.0001025,0.0027052,0.0019518,0.0032757,0.0060888,,,,0.9670991,-4.2226515,-11.5940275,0.0000000,0.0000000,0.0000000,0.0200040,0.0001998,0.0000000,0.0000000,0.0000200,0.0000000,0.0000000,0.0000000,0.0001998,0.0000000,0.0000000,0.0000200,0.0000000,0.0000000,0.0000000,0.0001998,0.0000000,0.0000000,0.0000200,0.0000200,0.0000000,0.0000000,0.0000040,0.0000000,0.0000000,0.0000000,0.0000200,0.0000000,0.0000000,0.0000040,0.0000000,0.0000000,0.0000000,0.0000200,0.0000000,0.0000000,0.0000040
53.6034440,1.0494001,,-0.9745625,-0.2240997,-0.0001023,0.0026733,0.0017541,0.0034613,-0.0003736,,,,0.9670991,-4.2226515,-11.5940275,0.0000000,0.0000000,0.0000000,0.0209880,0.0002007,0.0000000,0.0000000,0.0000200,0.0000000,0.0000000,0.0000000,0.0002007,0.0000000,0.0000000,0.0000200,0.0000000,0.0000000,0.0000000,0.0002007,0.0000000,0.0000000,0.0000200,0.0000200,0.0000000,0.0000000,0.0000040,0.0000000,0.0000000,0.0000000,0.0000200,0.0000000,0.0000000,0.0000040,0.0000000,0.0000000,0.0000000,0.0000200,0.0000000,0.0000000,0.0000040
53.6248030,1.0501500,,-0.9745626,-0.2240997,-0.0001217,0.0026468,0.0006482,-0.0003827,-0.0053137,,,,0.9670991,-4.2226515,-11.5940275,0.0000000,0.0000000,0.0000000,0.0210030,0.0002015,0.0000000,0.0000000,0.0000201,0.0000000,0.0000000,0.0000000,0.0002015,0.0000000,0.0000000,0.0000201,0.0000000,0.0000000,0.0000000,0.0002015,0.0000000,0.0000000,0.0000201,0.0000201,0.0000000,0.0000000,0.0000040,0.0000000,0.0000000,0.0000000,0.0000201,0.0000000,0.0000000,0.0000040,0.0000000,0.0000000,0.0000000,0.0000201,0.0000000,0.0000000,0.0000040
53.6460510,1.0001000,,-0.9745626,-0.2240998,-0.0001334,0.0026213,0.0020483,-0.0013510,-0.0038776,,,,0.9670991,-4.2226515,-11.5940275,0.0000000,0.0000000,0.0000000,0.0200020,0.0002023,0.0000000,0.0000000,0.0000202,0.0000000,0.0000000,0.0000000,0.0002023,0.0000000,0.0000000,0.0000202,0.0000000,0.0000000,0.0000000,0.0002023,0.0000000,0.0000000,0.0000202,0.0000202,0.0000000,0.0000000,0.0000040,0.0000000,0.0000000,0.0000000,0.0000202,0.0000000,0.0000000,0.0000040,0.0000000,0.0000000,0.0000000,0.0000202,0.0000000,0.0000000,0.0000040
53.6660810,1.0002000,,-0.9745626,-0.2240998,-0.0001363,0.0026135,0.0044574,-0.0032924,-0.0036478,,,,0.9670991,-4.2226515,-11.5940275,0.0000000,0.0000000,0.0000000,0.0200040,0.0002031,0.0000000,0.0000000,0.0000203,0.0000000,0.0000000,0.0000000,0.0002031,0.0000000,0.0000000,0.0000203,0.0000000,0.0000000,0.0000000,0.0002031,0.0000000,0.0000000,0.0000203,0.0000203,0.0000000,0.0000000,0.0000040,0.0000000,0.0000000,0.0000000,0.0000203,0.0000000,0.0000000,0.0000040,0.0000000,0.0000000,0.0000000,0.0000203,0.0000000,0.0000000,0.0000040
53.6816010,,1.0199701,-0.9745626,-0.2240998,-0.0001363,0.0026238,,,,0.0000000,0.0000000,0.0000000,0.9670991,-4.2226515,-11.5940275,0.0000000,0.0000000,0.0000000,0.1019970,0.0001991,0.0000000,0.0000000,0.0000199,0.0000000,0.0000000,0.0000000,0.0001991,0.0000000,0.0000000,0.0000199,0.0000000,0.0000000,0.0000000,0.0001991,0.0000000,0.0000000,0.0000199,0.0000199,0.0000000,0.0000000,0.0000040,0.0000000,0.0000000,0.0000000,0.0000199,0.0000000,0.0000000,0.0000040,0.0000000,0.0000000,0.0000000,0.0000199,0.0000000,0.0000000,0.0000040
53.6954220,1.0002501,,-0.9745626,-0.2240999,-0.0001634,0.0026238,0.0073175,-0.0025388,-0.0081715,,,,0.9670991,-4.2226515,-11.5940275,0.0000000,0.0000000,0.0000000,0.0200050,0.0001999,0.0000000,0.0000000,0.0000200,0.0000000,0.0000000,0.0000000,0.0001999,0.0000000,0.0000000,0.0000200,0.0000000,0.0000000,0.0000000,0.0001999,0.0000000,0.0000000,0.0000200,0.0000200,0.0000000,0.0000000,0.0000040,0.0000000,0.0000000,0.0000000,0.0000200,0.0000000,0.0000000,0.0000040,0.0000000,0.0000000,0.0000000,0.0000200,0.0000000,0.0000000,0.0000040
53.7085640,1.1993501,,-0.9745626,-0.2241000,-0.0002034,0.0026105,0.0038190,-0.0004988,-0.0035975,,,,0.9670991,-4.2226515,-11.5940275,0.0000000,0.0000000,0.0000000,0.0239870,0.0002008,0.0000000,0.0000000,0.0000201,0.0000000,0.0000000,0.0000000,0.0002008,0.0000000,0.0000000,0.0000201,0.0000000,0.0000000,0.0000000,0.0002008,0.0000000,0.0000000,0.0000201,0.0000201,0.0000000,0.0000000,0.0000040,0.0000000,0.0000000,0.0000000,0.0000201,0.0000000,0.0000000,0.0000040,0.0000000,0.0000000,0.0000000,0.0000201,0.0000000,0.0000000,0.0000040
53.7300630,1.0001000,,-0.9745626,-0.2241000,-0.0002137,0.0026048,0.0033133,-0.0065513,0.0008868,,,,0.9670991,-4.2226515,-11.5940275,0.0000000,0.0000000,0.0000000,0.0200020,0.0002016,0.0000000,0.0000000,0.0000201,0.0000000,0.0000000,0.0000000,0.0002016,0.0000000,0.0000000,0.0000201,0.0000000,0.0000000,0.0000000,0.0002016,0.0000000,0.0000000,0.0000201,0.0000201,0.0000000,0.0000000,0.0000040,0.0000000,0.0000000,0.0000000,0.0000201,0.0000000,0.0000000,0.0000040,0.0000000,0.0000000,0.0000000,0.0000201,0.0000000,0.0000000,0.0000040
53.7485900,1.0000000,,-0.9745625,-0.2241000,-0.0002174,0.0026427,-0.0018376,-0.0087688,-0.0059043,,,,0.9670991,-4.2226515,-11.5940275,0.0000000,0.0000000,0.0000000,0.0200000,0.0002024,0.0000000,0.0000000,0.0000202,0.0000000,0.0000000,0.0000000,0.0002024,0.0000000,0.0000000,0.0000202,0.0000000,0.0000000,0.0000000,0.0002024,0.0000000,0.0000000,0.0000202,0.0000202,0.0000000,0.0000000,0.0000040,0.0000000,0.0000000,0.0000000,0.0000202,0.0000000,0.0000000,0.0000040,0.0000000,0.0000000,0.0000000,0.0000202,0.0000000,0.0000000,0.0000040
53.7687630,1.0000000,,-0.9745625,-0.2241000,-0.0002207,0.0026374,-0.0063586,0.0000864,-0.0044170,,,,0.9670991,-4.2226515,-11.5940275,0.0000000,0.0000000,0.0000000,0.0200000,0.0002032,0.0000000,0.0000000,0.0000203,0.0000000,0.0000000,0.0000000,0.0002032,0.0000000,0.0000000,0.0000203,0.0000000,0.0000000,0.0000000,0.0002032,0.0000000,0.0000000,0.0000203,0.0000203,0.0000000,0.0000000,0.0000040,0.0000000,0.0000000,0.0000000,0.0000203,0.0000000,0.0000000,0.0000040,0.0000000,0.0000000,0.0000000,0.0000203,0.0000000,0.0000000,0.0000040
53.7848960,,1.0199400,-0.9745625,-0.2241000,-0.0002207,0.0026374,,,,0.0000000,0.0000000,0.0000000,0.9670991,-4.2226515,-11.5940275,0.0000000,0.0000000,0.0000000,0.1019940,0.0001992,0.0000000,0.0000000,0.0000199,0.0000000,0.0000000,0.0000000,0.0001992,0.0000000,0.0000000,0.0000199,0.0000000,0.0000000,0.0000000,0.0001992,0.0000000,0.0000000,0.0000199,0.0000199,0.0000000,0.0000000,0.0000040,0.0000000,0.0000000,0.0000000,0.0000199,0.0000000,0.0000000,0.0000040,0.0000000,0.0000000,0.0000000,0.0000199,0.0000000,0.0000000,0.0000040
53.7985770,0.9999500,,-0.9745625,-0.2240999,-0.0001994,0.0026392,-0.0122430,-0.0005900,-0.0078237,,,,0.9670991,-4.2226515,-11.5940275,0.0000000,0.0000000,0.0000000,0.0199990,0.0002000,0.0000000,0.0000000,0.0000200,0.0000000,0.0000000,0.0000000,0.0002000,0.0000000,0.0000000,0.0000200,0.0000000,0.0000000,0.0000000,0.0002000,0.0000000,0.0000000,0.0000200,0.0000200,0.0000000,0.0000000,0.0000040,0.0000000,0.0000000,0.0000000,0.0000200,0.0000000,0.0000000,0.0000040,0.0000000,0.0000000,0.0000000,0.0000200,0.0000000,0.0000000,0.0000040
53.8115580,1.1505500,,-0.9745626,-0.2240999,-0.0002000,0.0026266,-0.0088528,-0.0019353,-0.0031794,,,,0.9670991,-4.2226515,-11.5940275,0.0000000,0.0000000,0.0000000,0.0230110,0.0002009,0.0000000,0.0000000,0.0000201,0.0000000,0.0000000,0.0000000,0.0002009,0.0000000,0.0000000,0.0000201,0.0000000,0.0000000,0.0000000,0.0002009,0.0000000,0.0000000,0.0000201,0.0000201,0.0000000,0.0000000,0.0000040,0.0000000,0.0000000,0.0000000,0.0000201,0.0000000,0.0000000,0.0000040,0.0000000,0.0000000,0.0000000,0.0000201,0.0000000,0.0000000,0.0000040
53.8314950,0.9995500,,-0.9745626,-0.2241000,-0.0001984,0.0026255,-0.0022749,-0.0026004,-0.0003690,,,,0.9670991,-4.2226515,-11.5940275,0.0000000,0.0000000,0.0000000,0.0199910,0.0002017,0.0000000,0.0000000,0.0000202,0.0000000,0.0000000,0.0000000,0.0002017,0.0000000,0.0000000,0.0000202,0.0000000,0.0000000,0.0000000,0.0002017,0.0000000,0.0000000,0.0000202,0.0000202,0.0000000,0.0000000,0.0000040,0.0000000,0.0000000,0.0000000,0.0000202,0.0000000,0.0000000,0.0000040,0.0000000,0.0000000,0.0000000,0.0000202,0.0000000,0.0000000,0.0000040
53.8526170,1.0500500,,-0.9745625,-0.2241000,-0.0002226,0.0026408,0.0021813,-0.0007127,0.0022569,,,,0.9670991,-4.2226515,-11.5940275,0.0000000,0.0000000,0.0000000,0.0210010,0.0002026,0.0000000,0.0000000,0.0000202,0.0000000,0.0000000,0.0000000,0.0002026,0.0000000,0.0000000,0.0000202,0.0000000,0.0000000,0.0000000,0.0002026,0.0000000,0.0000000,0.0000202,0.0000202,0.0000000,0.0000000,0.0000040,0.0000000,0.0000000,0.0000000,0.0000202,0.0000000,0.0000000,0.0000040,0.0000000,0.0000000,0.0000000,0.0000202,0.0000000,0.0000000,0.0000040
53.8737570,1.0498999,,-0.9745625,-0.2241001,-0.0002381,0.0026276,-0.0031589,0.0001853,0.0006402,,,,0.9670991,-4.2226515,-11.5940275,0.0000000,0.0000000,0.0000000,0.0209980,0.0002034,0.0000000,0.0000000,0.0000203,0.0000000,0.0000000,0.0000000,0.0002034,0.0000000,0.0000000,0.0000203,0.0000000,0.0000000,0.0000000,0.0002034,0.0000000,0.0000000,0.0000203,0.0000203,0.0000000,0.0000000,0.0000040,0.0000000,0.0000000,0.0000000,0.0000203,0.0000000,0.0000000,0.0000040,0.0000000,0.0000000,0.0000000,0.0000203,0.0000000,0.0000000,0.0000040
53.8896030,,1.0200200,-0.9745625,-0.2241001,-0.0002381,0.0026276,,,,0.0000000,0.0000000,0.0000000,0.9670991,-4.2226515,-11.5940275,0.0000000,0.0000000,0.0000000,0.1020020,0.0001994,0.0000000,0.0000000,0.0000199,0.0000000,0.0000000,0.0000000,0.0001994,0.0000000,0.0000000,0.0000199,0.0000000,0.0000000,0.0000000,0.0001994,0.0000000,0.0000000,0.0000199,0.0000199,0.0000000,0.0000000,0.0000040,0.0000000,0.0000000,0.0000000,0.0000199,0.0000000,0.0000000,0.0000040,0.0000000,0.0000000,0.0000000,0.0000199,0.0000000,0.0000000,0.0000040
53.9036160,0.9999500,,-0.9745625,-0.2241001,-0.0002502,0.0026303,-0.0016863,0.0057766,-0.0016330,,,,0.9670991,-4.2226515,-11.5940275,0.0000000,0.0000000,0.0000000,0.0199990,0.0002002,0.0000000,0.0000000,0.0000200,0.0000000,0.0000000,0.0000000,0.0002002,0.0000000,0.0000000,0.0000200,0.0000000,0.0000000,0.0000000,0.0002002,0.0000000,0.0000000,0.0000200,0.0000200,0.0000000,0.0000000,0.0000040,0.0000000,0.0000000,0.0000000,0.0000200,0.0000000,0.0000000,0.0000040,0.0000000,0.0000000,0.0000000,0.0000200,0.0000000,0.0000000,0.0000040
53.9164760,1.1500000,,-0.9745626,-0.2241001,-0.0002367,0.0026197,0.0010413,0.0029417,-0.0081407,,,,0.9670991,-4.2226515,-11.5940275,0.0000000,0.0000000,0.0000000,0.0230000,0.0002011,0.0000000,0.0000000,0.0000201,0.0000000,0.0000000,0.0000000,0.0002011,0.0000000,0.0000000,0.0000201,0.0000000,0.0000000,0.0000000,0.0002011,0.0000000,0.0000000,0.0000201,0.0000201,0.0000000,0.0000000,0.0000040,0.0000000,0.0000000,0.0000000,0.0000201,0.0000000,0.0000000,0.0000040,0.0000000,0.0000000,0.0000000,0.0000201,0.0000000,0.0000000,0.0000040
53.9377980,1.0503500,,-0.9745626,-0.2241001,-0.0002545,0.0025993,0.0040760,0.0058806,-0.0070001,,,,0.9670991,-4.2226515,-11.5940275,0.0000000,0.0000000,0.0000000,0.0210070,0.0002019,0.0000000,0.0000000,0.0000202,0.0000000,0.0000000,0.0000000,0.0002019,0.0000000,0.0000000,0.0000202,0.0000000,0.0000000,0.0000000,0.0002019,0.0000000,0.0000000,0.0000202,0.0000202,0.0000000,0.0000000,0.0000040,0.0000000,0.0000000,0.0000000,0.0000202,0.0000000,0.0000000,0.0000040,0.0000000,0.0000000,0.0000000,0.0000202,0.0000000,0.0000000,0.0000040
53.9577820,0.9997000,,-0.9745628,-0.2241001,-0.0002417,0.0025674,-0.0050955,0.0041458,-0.0037442,,,,0.9670991,-4.2226515,-11.5940275,0.0000000,0.0000000,0.0000000,0.0199940,0.0002027,0.0000000,0.0000000,0.0000203,0.0000000,0.0000000,0.0000000,0.0002027,0.0000000,0.0000000,0.0000203,0.0000000,0.0000000,0.0000000,0.0002027,0.0000000,0.0000000,0.0000203,0.0000203,0.0000000,0.0000000,0.0000040,0.0000000,0.0000000,0.0000000,0.0000203,0.0000000,0.0000000,0.0000040,0.0000000,0.0000000,0.0000000,0.0000203,0.0000000,0.0000000,0.0000040
53.9776990,1.0000000,,-0.9745628,-0.2241002,-0.0002436,0.0025546,-0.0087276,0.0005928,-0.0065108,,,,0.9670991,-4.2226515,-11.5940275,0.0000000,0.0000000,0.0000000,0.0200000,0.0002035,0.0000000,0.0000000,0.0000203,0.0000000,0.0000000,0.0000000,0.0002035,0.0000000,0.0000000,0.0000203,0.0000000,0.0000000,0.0000000,0.0002035,0.0000000,0.0000000,0.0000203,0.0000203,0.0000000,0.0000000,0.0000040,0.0000000,0.0000000,0.0000000,0.0000203,0.0000000,0.0000000,0.0000040,0.0000000,0.0000000,0.0000000,0.0000203,0.0000000,0.0000000,0.0000040
53.9935350,,0.9999800,-0.9745628,-0.2241002,-0.0002436,0.0025546,,,,0.0000000,0.0000000,0.0000000,0.9670991,-4.2226515,-11.5940275,0.0000000,0.0000000,0.0000000,0.0999980,0.0001995,0.0000000,0.0000000,0.0000199,0.0000000,0.0000000,0.0000000,0.0001995,0.0000000,0.0000000,0.0000199,0.0000000,0.0000000,0.0000000,0.0001995,0.0000000,0.0000000,0.0000199,0.0000199,0.0000000,0.0000000,0.0000040,0.0000000,0.0000000,0.0000000,0.0000199,0.0000000,0.0000000,0.0000040,0.0000000,0.0000000,0.0000000,0.0000199,0.0000000,0.0000000,0.0000040
54.0073300,1.0004500,,-0.9745615,-0.2241056,-0.0002789,0.0025764,0.0018313,-0.0131085,-0.0198569,,,,0.9670991,-4.2226515,-11.5940275,0.0000000,0.0000000,0.0000000,0.0200090,0.0002003,0.0000000,0.0000000,0.0000200,0.0000000,0.0000000,0.0000000,0.0002003,0.0000000,0.0000000,0.0000200,0.0000000,0.0000000,0.0000000,0.0002003,0.0000000,0.0000000,0.0000200,0.0000200,0.0000000,0.0000000,0.0000040,0.0000000,0.0000000,0.0000000,0.0000200,0.0000000,0.0000000,0.0000040,0.0000000,0.0000000,0.0000000,0.0000200,0.0000000,0.0000000,0.0000040
54.0206850,1.1494499,,-0.9745134,-0.2243127,-0.0003987,0.0027037,-0.0114516,-0.0434576,-0.0033443,,,,0.9670991,-4.2226515,-11.5940275,0.0000000,0.0000000,0.0000000,0.0229890,0.0002012,0.0000000,0.0000000,0.0000201,0.0000000,0.0000000,0.0000000,0.0002012,0.0000000,0.0000000,0.0000201,0.0000000,0.0000000,0.0000000,0.0002012,0.0000000,0.0000000,0.0000201,0.0000201,0.0000000,0.0000000,0.0000040,0.0000000,0.0000000,0.0000000,0.0000201,0.0000000,0.0000000,0.0000040,0.0000000,0.0000000,0.0000000,0.0000201,0.0000000,0.0000000,0.0000040
54.0415990,1.0504000,,-0.9744755,-0.2244759,-0.0004670,0.0027910,-0.0024986,-0.0148929,-0.0121778,,,,0.9670991,-4.2226515,-11.5940275,0.0000000,0.0000000,0.0000000,0.0210080,0.0002020,0.0000000,0.0000000,0.0000202,0.0000000,0.0000000,0.0000000,0.0002020,0.0000000,0.0000000,0.0000202,0.0000000,0.0000000,0.0000000,0.0002020,0.0000000,0.0000000,0.0000202,0.0000202,0.0000000,0.0000000,0.0000040,0.0000000,0.0000000,0.0000000,0.0000202,0.0000000,0.0000000,0.0000040,0.0000000,0.0000000,0.0000000,0.0000202,0.0000000,0.0000000,0.0000040
54.0618630,1.0001000,,-0.9744548,-0.2245634,-0.0003628,0.0029935,-0.0298061,-0.0073167,-0.0251395,,,,0.9670991,-4.2226515,-11.5940275,0.0000000,0.0000000,0.0000000,0.0200020,0.0002028,0.0000000,0.0000000,0.0000203,0.0000000,0.0000000,0.0000000,0.0002028,0.0000000,0.0000000,0.0000203,0.0000000,0.0000000,0.0000000,0.0002028,0.0000000,0.0000000,0.0000203,0.0000203,0.0000000,0.0000000,0.0000040,0.0000000,0.0000000,0.0000000,0.0000203,0.0000000,0.0000000,0.0000040,0.0000000,0.0000000,0.0000000,0.0000203,0.0000000,0.0000000,0.0000040
54.0819600,,1.0000600,-0.9744473,-0.2245927,-0.0003000,0.0032230,,,,0.0000000,0.0000000,0.0000000,0.9670991,-4.2226515,-11.5940275,0.0000000,0.0000000,0.0000000,0.1000060,0.0001988,0.0000000,0.0000000,0.0000199,0.0000000,0.0000000,0.0000000,0.0001988,0.0000000,0.0000000,0.0000199,0.0000000,0.0000000,0.0000000,0.0001988,0.0000000,0.0000000,0.0000199,0.0000199,0.0000000,0.0000000,0.0000040,0.0000000,0.0000000,0.0000000,0.0000199,0.0000000,0.0000000,0.0000040,0.0000000,0.0000000,0.0000000,0.0000199,0.0000000,0.0000000,0.0000040
54.0955510,0.9998500,,-0.9744473,-0.2245927,-0.0003000,0.0032230,-0.0412931,0.0157661,-0.0033000,,,,0.9670991,-4.2226515,-11.5940275,0.0000000,0.0000000,0.0000000,0.0199970,0.0001996,0.0000000,0.0000000,0.0000199,0.0000000,0.0000000,0.0000000,0.0001996,0.0000000,0.0000000,0.0000199,0.0000000,0.0000000,0.0000000,0.0001996,0.0000000,0.0000000,0.0000199,0.0000199,0.0000000,0.0000000,0.0000040,0.0000000,0.0000000,0.0000000,0.0000199,0.0000000,0.0000000,0.0000040,0.0000000,0.0000000,0.0000000,0.0000199,0.0000000,0.0000000,0.0000040
54.1087100,1.3496500,,-0.9744358,-0.2246379,-0.0001560,0.0035352,-0.0171218,0.0375156,-0.0878393,,,,0.9670991,-4.2226515,-11.5940275,0.0000000,0.0000000,0.0000000,0.0269930,0.0002007,0.0000000,0.0000000,0.0000201,0.0000000,0.0000000,0.0000000,0.0002007,0.0000000,0.0000000,0.0000201,0.0000000,0.0000000,0.0000000,0.0002007,0.0000000,0.0000000,0.0000201,0.0000201,0.0000000,0.0000000,0.0000040,0.0000000,0.0000000,0.0000000,0.0000201,0.0000000,0.0000000,0.0000040,0.0000000,0.0000000,0.0000000,0.0000201,0.0000000,0.0000000,0.0000040
54.1288870,1.0005001,,-0.9744467,-0.2245794,-0.0001187,0.0041534,0.0659783,-0.1050215,0.0004987,,,,0.9671018,-4.2226267,-11.5940275,0.0002673,0.0024673,0.0000097,0.0200100,0.0002015,0.0000000,0.0000000,0.0000201,0.0000000,0.0000000,0.0000000,0.0002015,0.0000000,0.0000000,0.0000201,0.0000000,0.0000000,0.0000000,0.0002015,0.0000000,0.0000000,0.0000201,0.0000201,0.0000000,0.0000000,0.0000040,0.0000000,0.0000000,0.0000000,0.0000201,0.0000000,0.0000000,0.0000040,0.0000000,0.0000000,0.0000000,0.0000201,0.0000000,0.0000000,0.0000040
54.1487560,0.9996000,,-0.9744458,-0.2245816,-0.0000050,0.0042600,0.1192776,-0.0247932,0.0644431,,,,0.9671264,-4.2225623,-11.5940399,0.0021919,0.0039674,-0.0012699,0.0199920,0.0002023,0.0000000,0.0000000,0.0000202,0.0000000,0.0000000,0.0000000,0.0002023,0.0000000,0.0000000,0.0000202,0.0000000,0.0000000,0.0000000,0.0002023,0.0000000,0.0000000,0.0000202,0.0000202,0.0000000,0.0000000,0.0000040,0.0000000,0.0000000,0.0000000,0.0000202,0.0000000,0.0000000,0.0000040,0.0000000,0.0000000,0.0000000,0.0000202,0.0000000,0.0000000,0.0000040
54.1695780,1.0500000,,-0.9744682,-0.2244928,0.0000776,0.0037824,0.0683363,0.0179608,0.0090205,,,,0.9671264,-4.2225623,-11.5940399,0.0000000,0.0000000,0.0000000,0.0210000,0.0002031,0.0000000,0.0000000,0.0000203,0.0000000,0.0000000,0.0000000,0.0002031,0.0000000,0.0000000,0.0000203,0.0000000,0.0000000,0.0000000,0.0002031,0.0000000,0.0000000,0.0000203,0.0000203,0.0000000,0.0000000,0.0000040,0.0000000,0.0000000,0.0000000,0.0000203,0.0000000,0.0000000,0.0000040,0.0000000,0.0000000,0.0000000,0.0000203,0.0000000,0.0000000,0.0000040
54.1857810,,1.0199599,-0.9744682,-0.2244928,0.0000776,0.0037824,,,,0.0172048,-0.0175800,-0.0001608,0.9674684,-4.2229142,-11.5940428,0.0000342,-0.0000351,-0.0000003,0.1019960,0.0001991,0.0000000,0.0000000,0.0000199,0.0000000,0.0000000,0.0000000,0.0001991,0.0000000,0.0000000,0.0000199,0.0000000,0.0000000,0.0000000,0.0001991,0.0000000,0.0000000,0.0000199,0.0000199,0.0000000,0.0000000,0.0000040,0.0000000,0.0000000,0.0000000,0.0000199,0.0000000,0.0000000,0.0000040,0.0000000,0.0000000,0.0000000,0.0000199,0.0000000,0.0000000,0.0000040
54.1996540,1.0999500,,-0.9744743,-0.2244703,0.0000564,0.0035773,-0.0053674,-0.0267862,-0.0233294,,,,0.9674652,-4.2229099,-11.5940371,-0.0003289,0.0004395,0.0005169,0.0219990,0.0002000,0.0000000,0.0000000,0.0000200,0.0000000,0.0000000,0.0000000,0.0002000,0.0000000,0.0000000,0.0000200,0.0000000,0.0000000,0.0000000,0.0002000,0.0000000,0.0000000,0.0000200,0.0000200,0.0000000,0.0000000,0.0000040,0.0000000,0.0000000,0.0000000,0.0000200,0.0000000,0.0000000,0.0000040,0.0000000,0.0000000,0.0000000,0.0000200,0.0000000,0.0000000,0.0000040
54.2128790,1.0504500,,-0.9744891,-0.2244020,-0.0000027,0.0038258,-0.0146389,-0.0426366,0.0559470,,,,0.9674652,-4.2229099,-11.5940371,0.0000000,0.0000000,0.0000000,0.0210090,0.0002008,0.0000000,0.0000000,0.0000201,0.0000000,0.0000000,0.0000000,0.0002008,0.0000000,0.0000000,0.0000201,0.0000000,0.0000000,0.0000000,0.0002008,0.0000000,0.0000000,0.0000201,0.0000201,0.0000000,0.0000000,0.0000040,0.0000000,0.0000000,0.0000000,0.0000201,0.0000000,0.0000000,0.0000040,0.0000000,0.0000000,0.0000000,0.0000201,0.0000000,0.0000000,0.0000040
54.2325310,1.0001000,,-0.9744972,-0.2243736,-0.0002802,0.0033413,-0.0231505,0.1234342,0.0055049,,,,0.9674652,-4.2229099,-11.5940371,0.0000000,0.0000000,0.0000000,0.0200020,0.0002016,0.0000000,0.0000000,0.0000201,0.0000000,0.0000000,0.0000000,0.0002016,0.0000000,0.0000000,0.0000201,0.0000000,0.0000000,0.0000000,0.0002016,0.0000000,0.0000000,0.0000201,0.0000201,0.0000000,0.0000000,0.0000040,0.0000000,0.0000000,0.0000000,0.0000201,0.0000000,0.0000000,0.0000040,0.0000000,0.0000000,0.0000000,0.0000201,0.0000000,0.0000000,0.0000040
54.2526150,0.9995500,,-0.9744627,-0.2245197,0.0000555,0.0035803,-0.1097045,0.0501509,-0.0224016,,,,0.9674498,-4.2229285,-11.5940323,-0.0015325,-0.0018642,0.0004375,0.0199910,0.0002024,0.0000000,0.0000000,0.0000202,0.0000000,0.0000000,0.0000000,0.0002024,0.0000000,0.0000000,0.0000202,0.0000000,0.0000000,0.0000000,0.0002024,0.0000000,0.0000000,0.0000202,0.0000202,0.0000000,0.0000000,0.0000040,0.0000000,0.0000000,0.0000000,0.0000202,0.0000000,0.0000000,0.0000040,0.0000000,0.0000000,0.0000000,0.0000202,0.0000000,0.0000000,0.0000040
54.2738510,1.0499500,,-0.9744733,-0.2244776,0.0000778,0.0033632,-0.0591171,0.1556068,-0.0116967,,,,0.9674209,-4.2230043,-11.5940208,-0.0012189,-0.0053471,0.0006599,0.0209990,0.0002033,0.0000000,0.0000000,0.0000203,0.0000000,0.0000000,0.0000000,0.0002033,0.0000000,0.0000000,0.0000203,0.0000000,0.0000000,0.0000000,0.0002033,0.0000000,0.0000000,0.0000203,0.0000203,0.0000000,0.0000000,0.0000040,0.0000000,0.0000000,0.0000000,0.0000203,0.0000000,0.0000000,0.0000040,0.0000000,0.0000000,0.0000000,0.0000203,0.0000000,0.0000000,0.0000040
54.2897180,,1.0200000,-0.9744733,-0.2244776,0.0000778,0.0033632,,,,-0.1257509,-0.0790010,-0.0003061,0.9649167,-4.2245765,-11.5940275,-0.0014691,-0.0055042,0.0006593,0.1020000,0.0001992,0.0000000,0.0000000,0.0000199,0.0000000,0.0000000,0.0000000,0.0001992,0.0000000,0.0000000,0.0000199,0.0000000,0.0000000,0.0000000,0.0001992,0.0000000,0.0000000,0.0000199,0.0000199,0.0000000,0.0000000,0.0000040,0.0000000,0.0000000,0.0000000,0.0000199,0.0000000,0.0000000,0.0000040,0.0000000,0.0000000,0.0000000,0.0000199,0.0000000,0.0000000,0.0000040
54.3034710,1.1003500,,-0.9744667,-0.2245059,-0.0000711,0.0033900,0.0046211,-0.0050976,-0.0417447,,,,0.9648849,-4.2246962,-11.5940027,-0.0014254,-0.0053649,0.0015788,0.0220070,0.0002001,0.0000000,0.0000000,0.0000200,0.0000000,0.0000000,0.0000000,0.0002001,0.0000000,0.0000000,0.0000200,0.0000000,0.0000000,0.0000000,0.0002001,0.0000000,0.0000000,0.0000200,0.0000200,0.0000000,0.0000000,0.0000040,0.0000000,0.0000000,0.0000000,0.0000200,0.0000000,0.0000000,0.0000040,0.0000000,0.0000000,0.0000000,0.0000200,0.0000000,0.0000000,0.0000040
54.3166960,1.0495499,,-0.9744774,-0.2244561,-0.0001545,0.0036065,0.0095280,0.1568903,-0.0977843,,,,0.9648720,-4.2248392,-11.5939484,0.0001978,-0.0082534,0.0036088,0.0209910,0.0002009,0.0000000,0.0000000,0.0000201,0.0000000,0.0000000,0.0000000,0.0002009,0.0000000,0.0000000,0.0000201,0.0000000,0.0000000,0.0000000,0.0002009,0.0000000,0.0000000,0.0000201,0.0000201,0.0000000,0.0000000,0.0000040,0.0000000,0.0000000,0.0000000,0.0000201,0.0000000,0.0000000,0.0000040,0.0000000,0.0000000,0.0000000,0.0000201,0.0000000,0.0000000,0.0000040
54.3368690,1.0002999,,-0.9744917,-0.2243930,-0.0005175,0.0036288,0.0160326,-0.0199969,-0.0183822,,,,0.9648771,-4.2249994,-11.5938721,0.0003115,-0.0077560,0.0039801,0.0200060,0.0002017,0.0000000,0.0000000,0.0000202,0.0000000,0.0000000,0.0000000,0.0002017,0.0000000,0.0000000,0.0000202,0.0000000,0.0000000,0.0000000,0.0002017,0.0000000,0.0000000,0.0000202,0.0000202,0.0000000,0.0000000,0.0000040,0.0000000,0.0000000,0.0000000,0.0000202,0.0000000,0.0000000,0.0000040,0.0000000,0.0000000,0.0000000,0.0000202,0.0000000,0.0000000,0.0000040
54.3566630,1.0001501,,-0.9744971,-0.2243560,-0.0003451,0.0043542,-0.0225852,-0.0526926,-0.0609718,,,,0.9648746,-4.2251472,-11.5937805,-0.0005541,-0.0070162,0.0052073,0.0200030,0.0002025,0.0000000,0.0000000,0.0000202,0.0000000,0.0000000,0.0000000,0.0002025,0.0000000,0.0000000,0.0000202,0.0000000,0.0000000,0.0000000,0.0002025,0.0000000,0.0000000,0.0000202,0.0000202,0.0000000,0.0000000,0.0000040,0.0000000,0.0000000,0.0000000,0.0000202,0.0000000,0.0000000,0.0000040,0.0000000,0.0000000,0.0000000,0.0000202,0.0000000,0.0000000,0.0000040
54.3776040,1.0498501,,-0.9745083,-0.2243112,-0.0004454,0.0041747,0.0480717,0.0042857,-0.0307453,,,,0.9648730,-4.2252908,-11.5936642,0.0003937,-0.0066613,0.0058549,0.0209970,0.0002034,0.0000000,0.0000000,0.0000203,0.0000000,0.0000000,0.0000000,0.0002034,0.0000000,0.0000000,0.0000203,0.0000000,0.0000000,0.0000000,0.0002034,0.0000000,0.0000000,0.0000203,0.0000203,0.0000000,0.0000000,0.0000040,0.0000000,0.0000000,0.0000000,0.0000203,0.0000000,0.0000000,0.0000040,0.0000000,0.0000000,0.0000000,0.0000203,0.0000000,0.0000000,0.0000040
54.3935440,,0.9999900,-0.9745083,-0.2243112,-0.0004454,0.0041747,,,,-0.3313258,-0.1614136,-0.0010127,0.9582692,-4.2284942,-11.5936918,-0.0002661,-0.0069813,0.0058522,0.0999990,0.0001993,0.0000000,0.0000000,0.0000199,0.0000000,0.0000000,0.0000000,0.0001993,0.0000000,0.0000000,0.0000199,0.0000000,0.0000000,0.0000000,0.0001993,0.0000000,0.0000000,0.0000199,0.0000199,0.0000000,0.0000000,0.0000040,0.0000000,0.0000000,0.0000000,0.0000199,0.0000000,0.0000000,0.0000040,0.0000000,0.0000000,0.0000000,0.0000199,0.0000000,0.0000000,0.0000040
54.4074190,1.0998001,,-0.9745032,-0.2243104,-0.0000329,0.0051947,-0.0199552,-0.1840983,0.0241400,,,,0.9582396,-4.2286096,-11.5935688,-0.0024324,-0.0035261,0.0053611,0.0219960,0.0002002,0.0000000,0.0000000,0.0000200,0.0000000,0.0000000,0.0000000,0.0002002,0.0000000,0.0000000,0.0000200,0.0000000,0.0000000,0.0000000,0.0002002,0.0000000,0.0000000,0.0000200,0.0000200,0.0000000,0.0000000,0.0000040,0.0000000,0.0000000,0.0000000,0.0000200,0.0000000,0.0000000,0.0000040,0.0000000,0.0000000,0.0000000,0.0000200,0.0000000,0.0000000,0.0000040
54.4209200,1.0502001,,-0.9745308,-0.2241897,0.0000401,0.0052782,0.0438630,-0.0272222,0.0508655,,,,0.9581945,-4.2286739,-11.5934677,-0.0018562,-0.0025983,0.0043008,0.0210040,0.0002011,0.0000000,0.0000000,0.0000201,0.0000000,0.0000000,0.0000000,0.0002011,0.0000000,0.0000000,0.0000201,0.0000000,0.0000000,0.0000000,0.0002011,0.0000000,0.0000000,0.0000201,0.0000201,0.0000000,0.0000000,0.0000040,0.0000000,0.0000000,0.0000000,0.0000201,0.0000000,0.0000000,0.0000040,0.0000000,0.0000000,0.0000000,0.0000201,0.0000000,0.0000000,0.0000040
54.4405570,1.0000000,,-0.9745121,-0.2242461,0.0004333,0.0061831,0.0128525,-0.1730196,0.0683557,,,,0.9581945,-4.2286739,-11.5934677,0.0000000,0.0000000,0.0000000,0.0200000,0.0002019,0.0000000,0.0000000,0.0000202,0.0000000,0.0000000,0.0000000,0.0002019,0.0000000,0.0000000,0.0000202,0.0000000,0.0000000,0.0000000,0.0002019,0.0000000,0.0000000,0.0000202,0.0000202,0.0000000,0.0000000,0.0000040,0.0000000,0.0000000,0.0000000,0.0000202,0.0000000,0.0000000,0.0000040,0.0000000,0.0000000,0.0000000,0.0000202,0.0000000,0.0000000,0.0000040
54.4606480,0.9998500,,-0.9745088,-0.2242681,0.0003267,0.0059733,0.0558876,-0.0329896,0.0846844,,,,0.9582016,-4.2286630,-11.5934849,0.0007112,0.0011013,-0.0016833,0.0199970,0.0002027,0.0000000,0.0000000,0.0000202,0.0000000,0.0000000,0.0000000,0.0002027,0.0000000,0.0000000,0.0000202,0.0000000,0.0000000,0.0000000,0.0002027,0.0000000,0.0000000,0.0000202,0.0000202,0.0000000,0.0000000,0.0000040,0.0000000,0.0000000,0.0000000,0.0000202,0.0000000,0.0000000,0.0000040,0.0000000,0.0000000,0.0000000,0.0000202,0.0000000,0.0000000,0.0000040
54.4818020,1.0501500,,-0.9744912,-0.2243164,0.0005575,0.0068868,-0.0455425,-0.2555390,0.0652304,,,,0.9581828,-4.2285933,-11.5935335,-0.0025012,0.0055276,-0.0029817,0.0210030,0.0002035,0.0000000,0.0000000,0.0000203,0.0000000,0.0000000,0.0000000,0.0002035,0.0000000,0.0000000,0.0000203,0.0000000,0.0000000,0.0000000,0.0002035,0.0000000,0.0000000,0.0000203,0.0000203,0.0000000,0.0000000,0.0000040,0.0000000,0.0000000,0.0000000,0.0000203,0.0000000,0.0000000,0.0000040,0.0000000,0.0000000,0.0000000,0.0000203,0.0000000,0.0000000,0.0000040
54.4978150,,1.0199800,-0.9744912,-0.2243164,0.0005575,0.0068868,,,,-0.1675328,-0.0814477,-0.0003732,0.9548430,-4.2302160,-11.5935440,-0.0028348,0.0053655,-0.0029827,0.1019980,0.0001995,0.0000000,0.0000000,0.0000199,0.0000000,0.0000000,0.0000000,0.0001995,0.0000000,0.0000000,0.0000199,0.0000000,0.0000000,0.0000000,0.0001995,0.0000000,0.0000000,0.0000199,0.0000199,0.0000000,0.0000000,0.0000040,0.0000000,0.0000000,0.0000000,0.0000199,0.0000000,0.0000000,0.0000040,0.0000000,0.0000000,0.0000000,0.0000199,0.0000000,0.0000000,0.0000040
54.5106930,1.0997500,,-0.9745023,-0.2242513,0.0008174,0.0074161,-0.0288671,0.0711364,-0.0011372,,,,0.9548430,-4.2302160,-11.5935440,0.0000000,0.0000000,0.0000000,0.0219950,0.0002003,0.0000000,0.0000000,0.0000200,0.0000000,0.0000000,0.0000000,0.0002003,0.0000000,0.0000000,0.0000200,0.0000000,0.0000000,0.0000000,0.0002003,0.0000000,0.0000000,0.0000200,0.0000200,0.0000000,0.0000000,0.0000040,0.0000000,0.0000000,0.0000000,0.0000200,0.0000000,0.0000000,0.0000040,0.0000000,0.0000000,0.0000000,0.0000200,0.0000000,0.0000000,0.0000040
54.5251810,1.0000000,,-0.9744990,-0.2242546,0.0008507,0.0077561,-0.0417544,0.0607529,0.0533254,,,,0.9548407,-4.2302303,-11.5935545,-0.0002255,-0.0014420,-0.0010867,0.0200000,0.0002011,0.0000000,0.0000000,0.0000201,0.0000000,0.0000000,0.0000000,0.0002011,0.0000000,0.0000000,0.0000201,0.0000000,0.0000000,0.0000000,0.0002011,0.0000000,0.0000000,0.0000201,0.0000201,0.0000000,0.0000000,0.0000040,0.0000000,0.0000000,0.0000000,0.0000201,0.0000000,0.0000000,0.0000040,0.0000000,0.0000000,0.0000000,0.0000201,0.0000000,0.0000000,0.0000040
54.5437460,1.0000501,,-0.9745039,-0.2242004,0.0011257,0.0086023,-0.0235780,0.1451302,0.0507487,,,,0.9548407,-4.2302303,-11.5935545,0.0000000,0.0000000,0.0000000,0.0200010,0.0002019,0.0000000,0.0000000,0.0000202,0.0000000,0.0000000,0.0000000,0.0002019,0.0000000,0.0000000,0.0000202,0.0000000,0.0000000,0.0000000,0.0002019,0.0000000,0.0000000,0.0000202,0.0000202,0.0000000,0.0000000,0.0000040,0.0000000,0.0000000,0.0000000,0.0000202,0.0000000,0.0000000,0.0000040,0.0000000,0.0000000,0.0000000,0.0000202,0.0000000,0.0000000,0.0000040
54.5640160,1.0001000,,-0.9745029,-0.2242044,0.0010588,0.0086489,0.0553497,0.0429325,-0.0035105,,,,0.9548407,-4.2302303,-11.5935545,0.0000000,0.0000000,0.0000000,0.0200020,0.0002027,0.0000000,0.0000000,0.0000203,0.0000000,0.0000000,0.0000000,0.0002027,0.0000000,0.0000000,0.0000203,0.0000000,0.0000000,0.0000000,0.0002027,0.0000000,0.0000000,0.0000203,0.0000203,0.0000000,0.0000000,0.0000040,0.0000000,0.0000000,0.0000000,0.0000203,0.0000000,0.0000000,0.0000040,0.0000000,0.0000000,0.0000000,0.0000203,0.0000000,0.0000000,0.0000040
54.5836410,0.9998500,,-0.9744924,-0.2242256,0.0012289,0.0092294,-0.0280884,-0.0802259,0.0377040,,,,0.9548407,-4.2302303,-11.5935545,0.0000000,0.0000000,0.0000000,0.0199970,0.0002036,0.0000000,0.0000000,0.0000203,0.0000000,0.0000000,0.0000000,0.0002036,0.0000000,0.0000000,0.0000203,0.0000000,0.0000000,0.0000000,0.0002036,0.0000000,0.0000000,0.0000203,0.0000203,0.0000000,0.0000000,0.0000040,0.0000000,0.0000000,0.0000000,0.0000203,0.0000000,0.0000000,0.0000040,0.0000000,0.0000000,0.0000000,0.0000203,0.0000000,0.0000000,0.0000040
54.5998890,,1.0000499,-0.9744924,-0.2242256,0.0012289,0.0092294,,,,-0.1852610,-0.0900176,-0.0003592,0.9511449,-4.2320256,-11.5935612,-0.0003692,-0.0001794,-0.0000007,0.1000050,0.0001995,0.0000000,0.0000000,0.0000199,0.0000000,0.0000000,0.0000000,0.0001995,0.0000000,0.0000000,0.0000199,0.0000000,0.0000000,0.0000000,0.0001995,0.0000000,0.0000000,0.0000199,0.0000199,0.0000000,0.0000000,0.0000040,0.0000000,0.0000000,0.0000000,0.0000199,0.0000000,0.0000000,0.0000040,0.0000000,0.0000000,0.0000000,0.0000199,0.0000000,0.0000000,0.0000040
54.6136480,1.0000000,,-0.9745126,-0.2241597,0.0011207,0.0086997,-0.0361237,0.0183740,-0.0449298,,,,0.9511327,-4.2320356,-11.5935526,-0.0008531,-0.0008403,0.0008901,0.0200000,0.0002003,0.0000000,0.0000000,0.0000200,0.0000000,0.0000000,0.0000000,0.0002003,0.0000000,0.0000000,0.0000200,0.0000000,0.0000000,0.0000000,0.0002003,0.0000000,0.0000000,0.0000200,0.0000200,0.0000000,0.0000000,0.0000040,0.0000000,0.0000000,0.0000000,0.0000200,0.0000000,0.0000000,0.0000040,0.0000000,0.0000000,0.0000000,0.0000200,0.0000000,0.0000000,0.0000040
54.6266260,1.1504000,,-0.9745108,-0.2241665,0.0009890,0.0087597,-0.0162689,-0.0765064,-0.0191232,,,,0.9511327,-4.2320356,-11.5935526,0.0000000,0.0000000,0.0000000,0.0230080,0.0002012,0.0000000,0.0000000,0.0000201,0.0000000,0.0000000,0.0000000,0.0002012,0.0000000,0.0000000,0.0000201,0.0000000,0.0000000,0.0000000,0.0002012,0.0000000,0.0000000,0.0000201,0.0000201,0.0000000,0.0000000,0.0000040,0.0000000,0.0000000,0.0000000,0.0000201,0.0000000,0.0000000,0.0000040,0.0000000,0.0000000,0.0000000,0.0000201,0.0000000,0.0000000,0.0000040
54.6465410,0.9997000,,-0.9745210,-0.2241188,0.0009313,0.0088587,0.0331940,0.0800482,-0.0657902,,,,0.9511327,-4.2320356,-11.5935526,0.0000000,0.0000000,0.0000000,0.0199940,0.0002020,0.0000000,0.0000000,0.0000202,0.0000000,0.0000000,0.0000000,0.0002020,0.0000000,0.0000000,0.0000202,0.0000000,0.0000000,0.0000000,0.0002020,0.0000000,0.0000000,0.0000202,0.0000202,0.0000000,0.0000000,0.0000040,0.0000000,0.0000000,0.0000000,0.0000202,0.0000000,0.0000000,0.0000040,0.0000000,0.0000000,0.0000000,0.0000202,0.0000000,0.0000000,0.0000040
54.6665540,0.9999500,,-0.9745039,-0.2241540,0.0010040,0.0097599,0.0479767,-0.0479733,-0.0425310,,,,0.9511327,-4.2320356,-11.5935526,0.0000000,0.0000000,0.0000000,0.0199990,0.0002028,0.0000000,0.0000000,0.0000203,0.0000000,0.0000000,0.0000000,0.0002028,0.0000000,0.0000000,0.0000203,0.0000000,0.0000000,0.0000000,0.0002028,0.0000000,0.0000000,0.0000203,0.0000203,0.0000000,0.0000000,0.0000040,0.0000000,0.0000000,0.0000000,0.0000203,0.0000000,0.0000000,0.0000040,0.0000000,0.0000000,0.0000000,0.0000203,0.0000000,0.0000000,0.0000040
54.6879870,,0.9999700,-0.9745215,-0.2240805,0.0008819,0.0097190,,,,-0.2909857,-0.1759182,-0.0014248,0.9453484,-4.2355328,-11.5935812,-0.0005779,-0.0003493,-0.0000028,0.0999970,0.0001988,0.0000000,0.0000000,0.0000199,0.0000000,0.0000000,0.0000000,0.0001988,0.0000000,0.0000000,0.0000199,0.0000000,0.0000000,0.0000000,0.0001988,0.0000000,0.0000000,0.0000199,0.0000199,0.0000000,0.0000000,0.0000040,0.0000000,0.0000000,0.0000000,0.0000199,0.0000000,0.0000000,0.0000040,0.0000000,0.0000000,0.0000000,0.0000199,0.0000000,0.0000000,0.0000040
54.7024750,1.1000000,,-0.9745215,-0.2240805,0.0008819,0.0097190,0.0367218,0.1321031,-0.0543161,,,,0.9453484,-4.2355328,-11.5935812,0.0000000,0.0000000,0.0000000,0.0220000,0.0001997,0.0000000,0.0000000,0.0000199,0.0000000,0.0000000,0.0000000,0.0001997,0.0000000,0.0000000,0.0000199,0.0000000,0.0000000,0.0000000,0.0001997,0.0000000,0.0000000,0.0000199,0.0000199,0.0000000,0.0000000,0.0000040,0.0000000,0.0000000,0.0000000,0.0000199,0.0000000,0.0000000,0.0000040,0.0000000,0.0000000,0.0000000,0.0000199,0.0000000,0.0000000,0.0000040
54.7157080,1.3501500,,-0.9745120,-0.2241287,0.0007693,0.0095846,0.0034607,0.0478249,0.0005901,,,,0.9453484,-4.2355328,-11.5935812,0.0000000,0.0000000,0.0000000,0.0270030,0.0002007,0.0000000,0.0000000,0.0000201,0.0000000,0.0000000,0.0000000,0.0002007,0.0000000,0.0000000,0.0000201,0.0000000,0.0000000,0.0000000,0.0002007,0.0000000,0.0000000,0.0000201,0.0000201,0.0000000,0.0000000,0.0000040,0.0000000,0.0000000,0.0000000,0.0000201,0.0000000,0.0000000,0.0000040,0.0000000,0.0000000,0.0000000,0.0000201,0.0000000,0.0000000,0.0000040
54.7381090,1.0502001,,-0.9745371,-0.2240507,0.0004954,0.0088181,0.0301727,0.1206761,0.0070699,,,,0.9453484,-4.2355328,-11.5935812,0.0000000,0.0000000,0.0000000,0.0210040,0.0002016,0.0000000,0.0000000,0.0000201,0.0000000,0.0000000,0.0000000,0.0002016,0.0000000,0.0000000,0.0000201,0.0000000,0.0000000,0.0000000,0.0002016,0.0000000,0.0000000,0.0000201,0.0000201,0.0000000,0.0000000,0.0000040,0.0000000,0.0000000,0.0000000,0.0000201,0.0000000,0.0000000,0.0000040,0.0000000,0.0000000,0.0000000,0.0000201,0.0000000,0.0000000,0.0000040
54.7569960,1.0000501,,-0.9745194,-0.2241275,0.0004967,0.0088443,-0.0271881,-0.1225538,0.0288493,,,,0.9453328,-4.2355132,-11.5935869,-0.0015627,0.0019768,-0.0005358,0.0200010,0.0002024,0.0000000,0.0000000,0.0000202,0.0000000,0.0000000,0.0000000,0.0002024,0.0000000,0.0000000,0.0000202,0.0000000,0.0000000,0.0000000,0.0002024,0.0000000,0.0000000,0.0000202,0.0000202,0.0000000,0.0000000,0.0000040,0.0000000,0.0000000,0.0000000,0.0000202,0.0000000,0.0000000,0.0000040,0.0000000,0.0000000,0.0000000,0.0000202,0.0000000,0.0000000,0.0000040
54.7766740,1.0002000,,-0.9745227,-0.2241057,0.0006311,0.0090328,-0.0285858,-0.0899558,0.0756200,,,,0.9453328,-4.2355132,-11.5935869,0.0000000,0.0000000,0.0000000,0.0200040,0.0002032,0.0000000,0.0000000,0.0000203,0.0000000,0.0000000,0.0000000,0.0002032,0.0000000,0.0000000,0.0000203,0.0000000,0.0000000,0.0000000,0.0002032,0.0000000,0.0000000,0.0000203,0.0000203,0.0000000,0.0000000,0.0000040,0.0000000,0.0000000,0.0000000,0.0000203,0.0000000,0.0000000,0.0000040,0.0000000,0.0000000,0.0000000,0.0000203,0.0000000,0.0000000,0.0000040
54.7930400,,1.0000000,-0.9745227,-0.2241057,0.0006311,0.0090328,,,,-0.1631603,-0.0712730,-0.0003734,0.9420838,-4.2369332,-11.5935946,-0.0003246,-0.0001418,-0.0000007,0.1000000,0.0001992,0.0000000,0.0000000,0.0000199,0.0000000,0.0000000,0.0000000,0.0001992,0.0000000,0.0000000,0.0000199,0.0000000,0.0000000,0.0000000,0.0001992,0.0000000,0.0000000,0.0000199,0.0000199,0.0000000,0.0000000,0.0000040,0.0000000,0.0000000,0.0000000,0.0000199,0.0000000,0.0000000,0.0000040,0.0000000,0.0000000,0.0000000,0.0000199,0.0000000,0.0000000,0.0000040
54.8075760,1.0994000,,-0.9745306,-0.2240817,0.0005097,0.0087844,-0.0260803,-0.0463359,0.0501925,,,,0.9420838,-4.2369332,-11.5935946,0.0000000,0.0000000,0.0000000,0.0219880,0.0002000,0.0000000,0.0000000,0.0000200,0.0000000,0.0000000,0.0000000,0.0002000,0.0000000,0.0000000,0.0000200,0.0000000,0.0000000,0.0000000,0.0002000,0.0000000,0.0000000,0.0000200,0.0000200,0.0000000,0.0000000,0.0000040,0.0000000,0.0000000,0.0000000,0.0000200,0.0000000,0.0000000,0.0000040,0.0000000,0.0000000,0.0000000,0.0000200,0.0000000,0.0000000,0.0000040
54.8208930,1.1000000,,-0.9745425,-0.2240085,0.0005228,0.0093041,-0.0178848,-0.0537542,0.0210985,,,,0.9420838,-4.2369332,-11.5935946,0.0000000,0.0000000,0.0000000,0.0220000,0.0002009,0.0000000,0.0000000,0.0000201,0.0000000,0.0000000,0.0000000,0.0002009,0.0000000,0.0000000,0.0000201,0.0000000,0.0000000,0.0000000,0.0002009,0.0000000,0.0000000,0.0000201,0.0000201,0.0000000,0.0000000,0.0000040,0.0000000,0.0000000,0.0000000,0.0000201,0.0000000,0.0000000,0.0000040,0.0000000,0.0000000,0.0000000,0.0000201,0.0000000,0.0000000,0.0000040
54.8409790,1.0003999,,-0.9745701,-0.2239002,0.0002551,0.0090270,-0.0131081,-0.0129763,0.0014397,,,,0.9420803,-4.2369318,-11.5935946,-0.0003494,0.0001196,-0.0000251,0.0200080,0.0002017,0.0000000,0.0000000,0.0000202,0.0000000,0.0000000,0.0000000,0.0002017,0.0000000,0.0000000,0.0000202,0.0000000,0.0000000,0.0000000,0.0002017,0.0000000,0.0000000,0.0000202,0.0000202,0.0000000,0.0000000,0.0000040,0.0000000,0.0000000,0.0000000,0.0000202,0.0000000,0.0000000,0.0000040,0.0000000,0.0000000,0.0000000,0.0000202,0.0000000,0.0000000,0.0000040
54.8608200,1.0001501,,-0.9745898,-0.2237950,0.0003937,0.0094799,-0.0458530,0.0345656,0.0125912,,,,0.9420803,-4.2369318,-11.5935946,0.0000000,0.0000000,0.0000000,0.0200030,0.0002025,0.0000000,0.0000000,0.0000202,0.0000000,0.0000000,0.0000000,0.0002025,0.0000000,0.0000000,0.0000202,0.0000000,0.0000000,0.0000000,0.0002025,0.0000000,0.0000000,0.0000202,0.0000202,0.0000000,0.0000000,0.0000040,0.0000000,0.0000000,0.0000000,0.0000202,0.0000000,0.0000000,0.0000040,0.0000000,0.0000000,0.0000000,0.0000202,0.0000000,0.0000000,0.0000040
54.8810280,0.9998500,,-0.9746102,-0.2237059,0.0004098,0.0095000,-0.0085222,0.3247550,-0.0514055,,,,0.9421071,-4.2369909,-11.5935860,0.0026836,-0.0059361,0.0009057,0.0199970,0.0002033,0.0000000,0.0000000,0.0000203,0.0000000,0.0000000,0.0000000,0.0002033,0.0000000,0.0000000,0.0000203,0.0000000,0.0000000,0.0000000,0.0002033,0.0000000,0.0000000,0.0000203,0.0000203,0.0000000,0.0000000,0.0000040,0.0000000,0.0000000,0.0000000,0.0000203,0.0000000,0.0000000,0.0000040,0.0000000,0.0000000,0.0000000,0.0000203,0.0000000,0.0000000,0.0000040
54.8977170,,1.0200700,-0.9746102,-0.2237059,0.0004098,0.0095353,,,,-0.1398762,-0.0762616,-0.0006921,0.9393193,-4.2385097,-11.5936003,0.0024051,-0.0060878,0.0009043,0.1020070,0.0001993,0.0000000,0.0000000,0.0000199,0.0000000,0.0000000,0.0000000,0.0001993,0.0000000,0.0000000,0.0000199,0.0000000,0.0000000,0.0000000,0.0001993,0.0000000,0.0000000,0.0000199,0.0000199,0.0000000,0.0000000,0.0000040,0.0000000,0.0000000,0.0000000,0.0000199,0.0000000,0.0000000,0.0000040,0.0000000,0.0000000,0.0000000,0.0000199,0.0000000,0.0000000,0.0000040
54.9113410,1.0001501,,-0.9746069,-0.2237189,0.0004022,0.0095353,-0.0187112,-0.0540303,-0.0604623,,,,0.9393594,-4.2386236,-11.5935698,0.0016031,-0.0053009,0.0021325,0.0200030,0.0002001,0.0000000,0.0000000,0.0000200,0.0000000,0.0000000,0.0000000,0.0002001,0.0000000,0.0000000,0.0000200,0.0000000,0.0000000,0.0000000,0.0002001,0.0000000,0.0000000,0.0000200,0.0000200,0.0000000,0.0000000,0.0000040,0.0000000,0.0000000,0.0000000,0.0000200,0.0000000,0.0000000,0.0000040,0.0000000,0.0000000,0.0000000,0.0000200,0.0000000,0.0000000,0.0000040
54.9247120,1.1993999,,-0.9746244,-0.2236279,0.0004406,0.0098768,0.0056743,0.0768057,-0.0464436,,,,0.9393594,-4.2386236,-11.5935698,0.0000000,0.0000000,0.0000000,0.0239880,0.0002010,0.0000000,0.0000000,0.0000201,0.0000000,0.0000000,0.0000000,0.0002010,0.0000000,0.0000000,0.0000201,0.0000000,0.0000000,0.0000000,0.0002010,0.0000000,0.0000000,0.0000201,0.0000201,0.0000000,0.0000000,0.0000040,0.0000000,0.0000000,0.0000000,0.0000201,0.0000000,0.0000000,0.0000040,0.0000000,0.0000000,0.0000000,0.0000201,0.0000000,0.0000000,0.0000040
54.9461180,1.0000501,,-0.9746221,-0.2236218,0.0004720,0.0102241,-0.0144129,-0.0927770,0.0047476,,,,0.9393594,-4.2386236,-11.5935698,0.0000000,0.0000000,0.0000000,0.0200010,0.0002018,0.0000000,0.0000000,0.0000202,0.0000000,0.0000000,0.0000000,0.0002018,0.0000000,0.0000000,0.0000202,0.0000000,0.0000000,0.0000000,0.0002018,0.0000000,0.0000000,0.0000202,0.0000202,0.0000000,0.0000000,0.0000040,0.0000000,0.0000000,0.0000000,0.0000202,0.0000000,0.0000000,0.0000040,0.0000000,0.0000000,0.0000000,0.0000202,0.0000000,0.0000000,0.0000040
54.9645560,0.9999500,,-0.9746125,-0.2236188,0.0007071,0.0111188,-0.0009122,-0.1301669,0.0290843,,,,0.9393594,-4.2386236,-11.5935698,0.0000000,0.0000000,0.0000000,0.0199990,0.0002026,0.0000000,0.0000000,0.0000202,0.0000000,0.0000000,0.0000000,0.0002026,0.0000000,0.0000000,0.0000202,0.0000000,0.0000000,0.0000000,0.0002026,0.0000000,0.0000000,0.0000202,0.0000202,0.0000000,0.0000000,0.0000040,0.0000000,0.0000000,0.0000000,0.0000202,0.0000000,0.0000000,0.0000040,0.0000000,0.0000000,0.0000000,0.0000202,0.0000000,0.0000000,0.0000040
54.9847310,1.0000501,,-0.9746169,-0.2236007,0.0006466,0.0111186,-0.0057814,-0.0033311,0.0319982,,,,0.9393594,-4.2386236,-11.5935698,0.0000000,0.0000000,0.0000000,0.0200010,0.0002034,0.0000000,0.0000000,0.0000203,0.0000000,0.0000000,0.0000000,0.0002034,0.0000000,0.0000000,0.0000203,0.0000000,0.0000000,0.0000000,0.0002034,0.0000000,0.0000000,0.0000203,0.0000203,0.0000000,0.0000000,0.0000040,0.0000000,0.0000000,0.0000000,0.0000203,0.0000000,0.0000000,0.0000040,0.0000000,0.0000000,0.0000000,0.0000203,0.0000000,0.0000000,0.0000040
55.0006780,,0.9999300,-0.9746169,-0.2236007,0.0006466,0.0111186,,,,-0.1638188,-0.0795056,-0.0006793,0.9360921,-4.2402067,-11.5935841,-0.0003264,-0.0001581,-0.0000014,0.0999930,0.0001994,0.0000000,0.0000000,0.0000199,0.0000000,0.0000000,0.0000000,0.0001994,0.0000000,0.0000000,0.0000199,0.0000000,0.0000000,0.0000000,0.0001994,0.0000000,0.0000000,0.0000199,0.0000199,0.0000000,0.0000000,0.0000040,0.0000000,0.0000000,0.0000000,0.0000199,0.0000000,0.0000000,0.0000040,0.0000000,0.0000000,0.0000000,0.0000199,0.0000000,0.0000000,0.0000040
55.0142800,1.0005500,,-0.9746100,-0.2236138,0.0008179,0.0114564,-0.0497276,0.0317817,0.0363696,,,,0.9360921,-4.2402067,-11.5935841,0.0000000,0.0000000,0.0000000,0.0200110,0.0002002,0.0000000,0.0000000,0.0000200,0.0000000,0.0000000,0.0000000,0.0002002,0.0000000,0.0000000,0.0000200,0.0000000,0.0000000,0.0000000,0.0002002,0.0000000,0.0000000,0.0000200,0.0000200,0.0000000,0.0000000,0.0000040,0.0000000,0.0000000,0.0000000,0.0000200,0.0000000,0.0000000,0.0000040,0.0000000,0.0000000,0.0000000,0.0000200,0.0000000,0.0000000,0.0000040
55.0276120,1.1493500,,-0.9746254,-0.2235678,0.0006847,0.0110412,-0.0518413,0.0039127,-0.0092658,,,,0.9360921,-4.2402067,-11.5935841,0.0000000,0.0000000,0.0000000,0.0229870,0.0002011,0.0000000,0.0000000,0.0000201,0.0000000,0.0000000,0.0000000,0.0002011,0.0000000,0.0000000,0.0000201,0.0000000,0.0000000,0.0000000,0.0002011,0.0000000,0.0000000,0.0000201,0.0000201,0.0000000,0.0000000,0.0000040,0.0000000,0.0000000,0.0000000,0.0000201,0.0000000,0.0000000,0.0000040,0.0000000,0.0000000,0.0000000,0.0000201,0.0000000,0.0000000,0.0000040
55.0501700,1.0500000,,-0.9746182,-0.2235878,0.0008682,0.0112621,-0.0196493,-0.0188414,0.0262433,,,,0.9360864,-4.2402048,-11.5935898,-0.0005475,0.0001880,-0.0005435,0.0210000,0.0002020,0.0000000,0.0000000,0.0000202,0.0000000,0.0000000,0.0000000,0.0002020,0.0000000,0.0000000,0.0000202,0.0000000,0.0000000,0.0000000,0.0002020,0.0000000,0.0000000,0.0000202,0.0000202,0.0000000,0.0000000,0.0000040,0.0000000,0.0000000,0.0000000,0.0000202,0.0000000,0.0000000,0.0000040,0.0000000,0.0000000,0.0000000,0.0000202,0.0000000,0.0000000,0.0000040
55.0687770,1.0000501,,-0.9746450,-0.2234903,0.0007382,0.0108739,0.0401860,0.0846803,0.0420676,,,,0.9360864,-4.2402048,-11.5935898,0.0000000,0.0000000,0.0000000,0.0200010,0.0002028,0.0000000,0.0000000,0.0000203,0.0000000,0.0000000,0.0000000,0.0002028,0.0000000,0.0000000,0.0000203,0.0000000,0.0000000,0.0000000,0.0002028,0.0000000,0.0000000,0.0000203,0.0000203,0.0000000,0.0000000,0.0000040,0.0000000,0.0000000,0.0000000,0.0000203,0.0000000,0.0000000,0.0000040,0.0000000,0.0000000,0.0000000,0.0000203,0.0000000,0.0000000,0.0000040
55.0910710,,0.9999900,-0.9746325,-0.2235586,0.0008098,0.0105895,,,,-0.3151879,-0.1784791,-0.0017391,0.9298228,-4.2437515,-11.5936241,0.0000000,0.0000000,0.0000000,0.0999990,0.0001987,0.0000000,0.0000000,0.0000199,0.0000000,0.0000000,0.0000000,0.0001987,0.0000000,0.0000000,0.0000199,0.0000000,0.0000000,0.0000000,0.0001987,0.0000000,0.0000000,0.0000199,0.0000199,0.0000000,0.0000000,0.0000040,0.0000000,0.0000000,0.0000000,0.0000199,0.0000000,0.0000000,0.0000040,0.0000000,0.0000000,0.0000000,0.0000199,0.0000000,0.0000000,0.0000040
55.1045280,1.0006500,,-0.9746325,-0.2235586,0.0008098,0.0105895,0.0105944,-0.0296890,0.0297160,,,,0.9298228,-4.2437515,-11.5936241,0.0000000,0.0000000,0.0000000,0.0200130,0.0001995,0.0000000,0.0000000,0.0000199,0.0000000,0.0000000,0.0000000,0.0001995,0.0000000,0.0000000,0.0000199,0.0000000,0.0000000,0.0000000,0.0001995,0.0000000,0.0000000,0.0000199,0.0000199,0.0000000,0.0000000,0.0000040,0.0000000,0.0000000,0.0000000,0.0000199,0.0000000,0.0000000,0.0000040,0.0000000,0.0000000,0.0000000,0.0000199,0.0000000,0.0000000,0.0000040
55.1178580,1.4493001,,-0.9746542,-0.2234817,0.0008390,0.0102042,0.0151849,0.0571770,0.0015829,,,,0.9298390,-4.2437701,-11.5936251,0.0011179,-0.0012988,-0.0000782,0.0289860,0.0002007,0.0000000,0.0000000,0.0000200,0.0000000,0.0000000,0.0000000,0.0002007,0.0000000,0.0000000,0.0000200,0.0000000,0.0000000,0.0000000,0.0002007,0.0000000,0.0000000,0.0000200,0.0000200,0.0000000,0.0000000,0.0000040,0.0000000,0.0000000,0.0000000,0.0000200,0.0000000,0.0000000,0.0000040,0.0000000,0.0000000,0.0000000,0.0000200,0.0000000,0.0000000,0.0000040
55.1378840,1.0001000,,-0.9746323,-0.2235640,0.0010589,0.0104718,-0.0357959,-0.0924900,-0.0278875,,,,0.9298390,-4.2437701,-11.5936251,0.0000000,0.0000000,0.0000000,0.0200020,0.0002015,0.0000000,0.0000000,0.0000201,0.0000000,0.0000000,0.0000000,0.0002015,0.0000000,0.0000000,0.0000201,0.0000000,0.0000000,0.0000000,0.0002015,0.0000000,0.0000000,0.0000201,0.0000201,0.0000000,0.0000000,0.0000040,0.0000000,0.0000000,0.0000000,0.0000201,0.0000000,0.0000000,0.0000040,0.0000000,0.0000000,0.0000000,0.0000201,0.0000000,0.0000000,0.0000040
55.1575830,1.0006001,,-0.9746443,-0.2235023,0.0011873,0.0106549,-0.0112222,0.0317579,-0.0633746,,,,0.9298390,-4.2437701,-11.5936251,0.0000000,0.0000000,0.0000000,0.0200120,0.0002023,0.0000000,0.0000000,0.0000202,0.0000000,0.0000000,0.0000000,0.0002023,0.0000000,0.0000000,0.0000202,0.0000000,0.0000000,0.0000000,0.0002023,0.0000000,0.0000000,0.0000202,0.0000202,0.0000000,0.0000000,0.0000040,0.0000000,0.0000000,0.0000000,0.0000202,0.0000000,0.0000000,0.0000040,0.0000000,0.0000000,0.0000000,0.0000202,0.0000000,0.0000000,0.0000040
55.1776290,1.0000000,,-0.9746535,-0.2234673,0.0012183,0.0105549,-0.0020863,-0.0359017,-0.0032296,,,,0.9298390,-4.2437701,-11.5936251,0.0000000,0.0000000,0.0000000,0.0200000,0.0002031,0.0000000,0.0000000,0.0000203,0.0000000,0.0000000,0.0000000,0.0002031,0.0000000,0.0000000,0.0000203,0.0000000,0.0000000,0.0000000,0.0002031,0.0000000,0.0000000,0.0000203,0.0000203,0.0000000,0.0000000,0.0000040,0.0000000,0.0000000,0.0000000,0.0000203,0.0000000,0.0000000,0.0000040,0.0000000,0.0000000,0.0000000,0.0000203,0.0000000,0.0000000,0.0000040
55.1952850,,1.0000900,-0.9746535,-0.2234673,0.0012183,0.0105549,,,,-0.1673458,-0.0815089,-0.0004459,0.9265076,-4.2453923,-11.5936337,-0.0003328,-0.0001620,-0.0000009,0.1000090,0.0001991,0.0000000,0.0000000,0.0000199,0.0000000,0.0000000,0.0000000,0.0001991,0.0000000,0.0000000,0.0000199,0.0000000,0.0000000,0.0000000,0.0001991,0.0000000,0.0000000,0.0000199,0.0000199,0.0000000,0.0000000,0.0000040,0.0000000,0.0000000,0.0000000,0.0000199,0.0000000,0.0000000,0.0000040,0.0000000,0.0000000,0.0000000,0.0000199,0.0000000,0.0000000,0.0000040
55.2085830,0.9994500,,-0.9746670,-0.2234167,0.0012704,0.0103736,0.0262930,0.0865184,-0.0346730,,,,0.9265133,-4.2454090,-11.5936270,0.0008984,-0.0015032,0.0006572,0.0199890,0.0001998,0.0000000,0.0000000,0.0000200,0.0000000,0.0000000,0.0000000,0.0001998,0.0000000,0.0000000,0.0000200,0.0000000,0.0000000,0.0000000,0.0001998,0.0000000,0.0000000,0.0000200,0.0000200,0.0000000,0.0000000,0.0000040,0.0000000,0.0000000,0.0000000,0.0000200,0.0000000,0.0000000,0.0000040,0.0000000,0.0000000,0.0000000,0.0000200,0.0000000,0.0000000,0.0000040
55.2218310,1.1999000,,-0.9746608,-0.2234618,0.0011953,0.0099821,0.0252848,0.0418783,-0.0213343,,,,0.9265133,-4.2454090,-11.5936270,0.0000000,0.0000000,0.0000000,0.0239980,0.0002008,0.0000000,0.0000000,0.0000201,0.0000000,0.0000000,0.0000000,0.0002008,0.0000000,0.0000000,0.0000201,0.0000000,0.0000000,0.0000000,0.0002008,0.0000000,0.0000000,0.0000201,0.0000201,0.0000000,0.0000000,0.0000040,0.0000000,0.0000000,0.0000000,0.0000201,0.0000000,0.0000000,0.0000040,0.0000000,0.0000000,0.0000000,0.0000201,0.0000000,0.0000000,0.0000040
55.2429730,1.0501001,,-0.9746648,-0.2234478,0.0012290,0.0098948,0.0404973,0.0569041,-0.0073407,,,,0.9265268,-4.2454166,-11.5936260,0.0012872,-0.0007079,0.0001322,0.0210020,0.0002016,0.0000000,0.0000000,0.0000201,0.0000000,0.0000000,0.0000000,0.0002016,0.0000000,0.0000000,0.0000201,0.0000000,0.0000000,0.0000000,0.0002016,0.0000000,0.0000000,0.0000201,0.0000201,0.0000000,0.0000000,0.0000040,0.0000000,0.0000000,0.0000000,0.0000201,0.0000000,0.0000000,0.0000040,0.0000000,0.0000000,0.0000000,0.0000201,0.0000000,0.0000000,0.0000040
55.2628620,1.0003500,,-0.9746830,-0.2233762,0.0010493,0.0097323,0.0409396,0.0599538,0.0179666,,,,0.9265268,-4.2454166,-11.5936260,0.0000000,0.0000000,0.0000000,0.0200070,0.0002025,0.0000000,0.0000000,0.0000202,0.0000000,0.0000000,0.0000000,0.0002025,0.0000000,0.0000000,0.0000202,0.0000000,0.0000000,0.0000000,0.0002025,0.0000000,0.0000000,0.0000202,0.0000202,0.0000000,0.0000000,0.0000040,0.0000000,0.0000000,0.0000000,0.0000202,0.0000000,0.0000000,0.0000040,0.0000000,0.0000000,0.0000000,0.0000202,0.0000000,0.0000000,0.0000040
55.2825970,0.9999000,,-0.9746644,-0.2234430,0.0011056,0.0100478,-0.0139159,-0.0834417,0.0437886,,,,0.9265268,-4.2454166,-11.5936260,0.0000000,0.0000000,0.0000000,0.0199980,0.0002033,0.0000000,0.0000000,0.0000203,0.0000000,0.0000000,0.0000000,0.0002033,0.0000000,0.0000000,0.0000203,0.0000000,0.0000000,0.0000000,0.0002033,0.0000000,0.0000000,0.0000203,0.0000203,0.0000000,0.0000000,0.0000040,0.0000000,0.0000000,0.0000000,0.0000203,0.0000000,0.0000000,0.0000040,0.0000000,0.0000000,0.0000000,0.0000203,0.0000000,0.0000000,0.0000040
55.3002850,,0.9999200,-0.9746644,-0.2234430,0.0011056,0.0100478,,,,-0.1223809,-0.0592314,-0.0003177,0.9240884,-4.2465963,-11.5936327,-0.0002436,-0.0001178,-0.0000006,0.0999920,0.0001992,0.0000000,0.0000000,0.0000199,0.0000000,0.0000000,0.0000000,0.0001992,0.0000000,0.0000000,0.0000199,0.0000000,0.0000000,0.0000000,0.0001992,0.0000000,0.0000000,0.0000199,0.0000199,0.0000000,0.0000000,0.0000040,0.0000000,0.0000000,0.0000000,0.0000199,0.0000000,0.0000000,0.0000040,0.0000000,0.0000000,0.0000000,0.0000199,0.0000000,0.0000000,0.0000040
55.3135890,0.9997500,,-0.9746929,-0.2233544,0.0010698,0.0091878,0.0063553,-0.0248217,-0.0001470,,,,0.9240825,-4.2465935,-11.5936327,-0.0003453,0.0003842,0.0000117,0.0199950,0.0002000,0.0000000,0.0000000,0.0000200,0.0000000,0.0000000,0.0000000,0.0002000,0.0000000,0.0000000,0.0000200,0.0000000,0.0000000,0.0000000,0.0002000,0.0000000,0.0000000,0.0000200,0.0000200,0.0000000,0.0000000,0.0000040,0.0000000,0.0000000,0.0000000,0.0000200,0.0000000,0.0000000,0.0000040,0.0000000,0.0000000,0.0000000,0.0000200,0.0000000,0.0000000,0.0000040
55.3268490,1.1999500,,-0.9746776,-0.2233915,0.0013719,0.0098505,0.0293160,-0.2456796,0.0569486,,,,0.9240509,-4.2465167,-11.5936470,-0.0022890,0.0060224,-0.0012367,0.0239990,0.0002010,0.0000000,0.0000000,0.0000201,0.0000000,0.0000000,0.0000000,0.0002010,0.0000000,0.0000000,0.0000201,0.0000000,0.0000000,0.0000000,0.0002010,0.0000000,0.0000000,0.0000201,0.0000201,0.0000000,0.0000000,0.0000040,0.0000000,0.0000000,0.0000000,0.0000201,0.0000000,0.0000000,0.0000040,0.0000000,0.0000000,0.0000000,0.0000201,0.0000000,0.0000000,0.0000040
55.3479230,1.0500500,,-0.9746970,-0.2233158,0.0014139,0.0096554,0.0007878,0.1000911,-0.0094591,,,,0.9240509,-4.2465167,-11.5936470,0.0000000,0.0000000,0.0000000,0.0210010,0.0002018,0.0000000,0.0000000,0.0000202,0.0000000,0.0000000,0.0000000,0.0002018,0.0000000,0.0000000,0.0000202,0.0000000,0.0000000,0.0000000,0.0002018,0.0000000,0.0000000,0.0000202,0.0000202,0.0000000,0.0000000,0.0000040,0.0000000,0.0000000,0.0000000,0.0000202,0.0000000,0.0000000,0.0000040,0.0000000,0.0000000,0.0000000,0.0000202,0.0000000,0.0000000,0.0000040
55.3677330,0.9999500,,-0.9746740,-0.2234203,0.0013551,0.0095802,-0.0175505,-0.0905413,-0.0309441,,,,0.9240509,-4.2465167,-11.5936470,0.0000000,0.0000000,0.0000000,0.0199990,0.0002026,0.0000000,0.0000000,0.0000202,0.0000000,0.0000000,0.0000000,0.0002026,0.0000000,0.0000000,0.0000202,0.0000000,0.0000000,0.0000000,0.0002026,0.0000000,0.0000000,0.0000202,0.0000202,0.0000000,0.0000000,0.0000040,0.0000000,0.0000000,0.0000000,0.0000202,0.0000000,0.0000000,0.0000040,0.0000000,0.0000000,0.0000000,0.0000202,0.0000000,0.0000000,0.0000040
55.3895550,,0.9999900,-0.9746873,-0.2233540,0.0012615,0.0097912,,,,-0.0024477,-0.0011845,-0.0000045,0.9240031,-4.2465420,-11.5936470,-0.0000048,-0.0000025,0.0000000,0.0999990,0.0001986,0.0000000,0.0000000,0.0000198,0.0000000,0.0000000,0.0000000,0.0001986,0.0000000,0.0000000,0.0000198,0.0000000,0.0000000,0.0000000,0.0001986,0.0000000,0.0000000,0.0000198,0.0000198,0.0000000,0.0000000,0.0000040,0.0000000,0.0000000,0.0000000,0.0000198,0.0000000,0.0000000,0.0000040,0.0000000,0.0000000,0.0000000,0.0000198,0.0000000,0.0000000,0.0000040
55.4037860,1.0505501,,-0.9746873,-0.2233540,0.0012615,0.0097912,0.0255342,0.0599616,-0.0014111,,,,0.9240138,-4.2465515,-11.5936470,0.0010269,-0.0009034,0.0000059,0.0210110,0.0001994,0.0000000,0.0000000,0.0000199,0.0000000,0.0000000,0.0000000,0.0001994,0.0000000,0.0000000,0.0000199,0.0000000,0.0000000,0.0000000,0.0001994,0.0000000,0.0000000,0.0000199,0.0000199,0.0000000,0.0000000,0.0000040,0.0000000,0.0000000,0.0000000,0.0000199,0.0000000,0.0000000,0.0000040,0.0000000,0.0000000,0.0000000,0.0000199,0.0000000,0.0000000,0.0000040
55.4167630,1.3994501,,-0.9746739,-0.2233880,0.0014712,0.0102939,0.0139496,-0.0858258,0.0577738,,,,0.9240138,-4.2465515,-11.5936470,0.0000000,0.0000000,0.0000000,0.0279890,0.0002005,0.0000000,0.0000000,0.0000200,0.0000000,0.0000000,0.0000000,0.0002005,0.0000000,0.0000000,0.0000200,0.0000000,0.0000000,0.0000000,0.0002005,0.0000000,0.0000000,0.0000200,0.0000200,0.0000000,0.0000000,0.0000040,0.0000000,0.0000000,0.0000000,0.0000200,0.0000000,0.0000000,0.0000040,0.0000000,0.0000000,0.0000000,0.0000200,0.0000000,0.0000000,0.0000040
55.4369970,1.0003999,,-0.9746959,-0.2232897,0.0015538,0.0103447,0.0465332,0.1650949,-0.0102824,,,,0.9240366,-4.2465773,-11.5936460,0.0022775,-0.0025718,0.0001383,0.0200080,0.0002013,0.0000000,0.0000000,0.0000201,0.0000000,0.0000000,0.0000000,0.0002013,0.0000000,0.0000000,0.0000201,0.0000000,0.0000000,0.0000000,0.0002013,0.0000000,0.0000000,0.0000201,0.0000201,0.0000000,0.0000000,0.0000040,0.0000000,0.0000000,0.0000000,0.0000201,0.0000000,0.0000000,0.0000040,0.0000000,0.0000000,0.0000000,0.0000201,0.0000000,0.0000000,0.0000040
55.4568640,0.9998500,,-0.9746841,-0.2233456,0.0016371,0.0102461,0.0329331,0.0469258,-0.0289220,,,,0.9240366,-4.2465773,-11.5936460,0.0000000,0.0000000,0.0000000,0.0199970,0.0002022,0.0000000,0.0000000,0.0000202,0.0000000,0.0000000,0.0000000,0.0002022,0.0000000,0.0000000,0.0000202,0.0000000,0.0000000,0.0000000,0.0002022,0.0000000,0.0000000,0.0000202,0.0000202,0.0000000,0.0000000,0.0000040,0.0000000,0.0000000,0.0000000,0.0000202,0.0000000,0.0000000,0.0000040,0.0000000,0.0000000,0.0000000,0.0000202,0.0000000,0.0000000,0.0000040
55.4764630,1.0004500,,-0.9746911,-0.2233081,0.0017225,0.0103790,0.0454277,0.1908518,-0.0297045,,,,0.9240366,-4.2465773,-11.5936460,0.0000000,0.0000000,0.0000000,0.0200090,0.0002030,0.0000000,0.0000000,0.0000203,0.0000000,0.0000000,0.0000000,0.0002030,0.0000000,0.0000000,0.0000203,0.0000000,0.0000000,0.0000000,0.0002030,0.0000000,0.0000000,0.0000203,0.0000203,0.0000000,0.0000000,0.0000040,0.0000000,0.0000000,0.0000000,0.0000203,0.0000000,0.0000000,0.0000040,0.0000000,0.0000000,0.0000000,0.0000203,0.0000000,0.0000000,0.0000040
55.4931200,,1.0000199,-0.9746911,-0.2233081,0.0017225,0.0103790,,,,-0.1751216,-0.0846854,-0.0002485,0.9205524,-4.2482610,-11.5936508,-0.0003481,-0.0001682,-0.0000005,0.1000020,0.0001989,0.0000000,0.0000000,0.0000199,0.0000000,0.0000000,0.0000000,0.0001989,0.0000000,0.0000000,0.0000199,0.0000000,0.0000000,0.0000000,0.0001989,0.0000000,0.0000000,0.0000199,0.0000199,0.0000000,0.0000000,0.0000040,0.0000000,0.0000000,0.0000000,0.0000199,0.0000000,0.0000000,0.0000040,0.0000000,0.0000000,0.0000000,0.0000199,0.0000000,0.0000000,0.0000040
55.5064970,1.0996500,,-0.9746770,-0.2233659,0.0017680,0.0104526,0.0348293,0.0421270,-0.0686700,,,,0.9205524,-4.2482610,-11.5936508,0.0000000,0.0000000,0.0000000,0.0219930,0.0001998,0.0000000,0.0000000,0.0000200,0.0000000,0.0000000,0.0000000,0.0001998,0.0000000,0.0000000,0.0000200,0.0000000,0.0000000,0.0000000,0.0001998,0.0000000,0.0000000,0.0000200,0.0000200,0.0000000,0.0000000,0.0000040,0.0000000,0.0000000,0.0000000,0.0000200,0.0000000,0.0000000,0.0000040,0.0000000,0.0000000,0.0000000,0.0000200,0.0000000,0.0000000,0.0000040
55.5197700,1.0495499,,-0.9746553,-0.2234022,0.0021137,0.0115177,-0.0201067,-0.0469297,0.0074970,,,,0.9205524,-4.2482610,-11.5936508,0.0000000,0.0000000,0.0000000,0.0209910,0.0002006,0.0000000,0.0000000,0.0000200,0.0000000,0.0000000,0.0000000,0.0002006,0.0000000,0.0000000,0.0000200,0.0000000,0.0000000,0.0000000,0.0002006,0.0000000,0.0000000,0.0000200,0.0000200,0.0000000,0.0000000,0.0000040,0.0000000,0.0000000,0.0000000,0.0000200,0.0000000,0.0000000,0.0000040,0.0000000,0.0000000,0.0000000,0.0000200,0.0000000,0.0000000,0.0000040
55.5411970,1.0001000,,-0.9746556,-0.2233655,0.0023068,0.0121581,-0.0265862,0.0344957,-0.0721030,,,,0.9205507,-4.2482700,-11.5936365,-0.0001640,-0.0008852,0.0014242,0.0200020,0.0002014,0.0000000,0.0000000,0.0000201,0.0000000,0.0000000,0.0000000,0.0002014,0.0000000,0.0000000,0.0000201,0.0000000,0.0000000,0.0000000,0.0002014,0.0000000,0.0000000,0.0000201,0.0000201,0.0000000,0.0000000,0.0000040,0.0000000,0.0000000,0.0000000,0.0000201,0.0000000,0.0000000,0.0000040,0.0000000,0.0000000,0.0000000,0.0000201,0.0000000,0.0000000,0.0000040
55.5598870,1.0000000,,-0.9746250,-0.2234455,0.0026401,0.0130348,-0.0305890,-0.1670097,0.0264943,,,,0.9205507,-4.2482700,-11.5936365,0.0000000,0.0000000,0.0000000,0.0200000,0.0002022,0.0000000,0.0000000,0.0000202,0.0000000,0.0000000,0.0000000,0.0002022,0.0000000,0.0000000,0.0000202,0.0000000,0.0000000,0.0000000,0.0002022,0.0000000,0.0000000,0.0000202,0.0000202,0.0000000,0.0000000,0.0000040,0.0000000,0.0000000,0.0000000,0.0000202,0.0000000,0.0000000,0.0000040,0.0000000,0.0000000,0.0000000,0.0000202,0.0000000,0.0000000,0.0000040
55.5799150,1.0000000,,-0.9746399,-0.2233460,0.0028779,0.0135730,0.0456339,0.1074589,-0.0460409,,,,0.9205684,-4.2482858,-11.5936279,0.0017679,-0.0015597,0.0008612,0.0200000,0.0002030,0.0000000,0.0000000,0.0000203,0.0000000,0.0000000,0.0000000,0.0002030,0.0000000,0.0000000,0.0000203,0.0000000,0.0000000,0.0000000,0.0002030,0.0000000,0.0000000,0.0000203,0.0000203,0.0000000,0.0000000,0.0000040,0.0000000,0.0000000,0.0000000,0.0000203,0.0000000,0.0000000,0.0000040,0.0000000,0.0000000,0.0000000,0.0000203,0.0000000,0.0000000,0.0000040
55.5973770,,1.0000600,-0.9746399,-0.2233460,0.0028779,0.0141307,,,,-0.1505560,-0.0728252,-0.0000758,0.9175719,-4.2497344,-11.5936298,0.0014685,-0.0017045,0.0008611,0.1000060,0.0001990,0.0000000,0.0000000,0.0000199,0.0000000,0.0000000,0.0000000,0.0001990,0.0000000,0.0000000,0.0000199,0.0000000,0.0000000,0.0000000,0.0001990,0.0000000,0.0000000,0.0000199,0.0000199,0.0000000,0.0000000,0.0000040,0.0000000,0.0000000,0.0000000,0.0000199,0.0000000,0.0000000,0.0000040,0.0000000,0.0000000,0.0000000,0.0000199,0.0000000,0.0000000,0.0000040
55.6105890,1.0003500,,-0.9746166,-0.2234108,0.0030671,0.0141307,0.0368703,-0.0496336,-0.0212886,,,,0.9175719,-4.2497344,-11.5936298,0.0000000,0.0000000,0.0000000,0.0200070,0.0001998,0.0000000,0.0000000,0.0000200,0.0000000,0.0000000,0.0000000,0.0001998,0.0000000,0.0000000,0.0000200,0.0000000,0.0000000,0.0000000,0.0001998,0.0000000,0.0000000,0.0000200,0.0000200,0.0000000,0.0000000,0.0000040,0.0000000,0.0000000,0.0000000,0.0000200,0.0000000,0.0000000,0.0000040,0.0000000,0.0000000,0.0000000,0.0000200,0.0000000,0.0000000,0.0000040
55.6239810,1.1995500,,-0.9746171,-0.2233561,0.0033343,0.0148801,0.0250498,0.2512300,-0.0563062,,,,0.9176100,-4.2497969,-11.5936155,0.0031823,-0.0051987,0.0011665,0.0239910,0.0002008,0.0000000,0.0000000,0.0000201,0.0000000,0.0000000,0.0000000,0.0002008,0.0000000,0.0000000,0.0000201,0.0000000,0.0000000,0.0000000,0.0002008,0.0000000,0.0000000,0.0000201,0.0000201,0.0000000,0.0000000,0.0000040,0.0000000,0.0000000,0.0000000,0.0000201,0.0000000,0.0000000,0.0000040,0.0000000,0.0000000,0.0000000,0.0000201,0.0000000,0.0000000,0.0000040
55.6451940,1.0000501,,-0.9745839,-0.2234538,0.0035242,0.0155334,0.0357259,0.0133179,-0.0379492,,,,0.9176100,-4.2497969,-11.5936155,0.0000000,0.0000000,0.0000000,0.0200010,0.0002016,0.0000000,0.0000000,0.0000201,0.0000000,0.0000000,0.0000000,0.0002016,0.0000000,0.0000000,0.0000201,0.0000000,0.0000000,0.0000000,0.0002016,0.0000000,0.0000000,0.0000201,0.0000201,0.0000000,0.0000000,0.0000040,0.0000000,0.0000000,0.0000000,0.0000201,0.0000000,0.0000000,0.0000040,0.0000000,0.0000000,0.0000000,0.0000201,0.0000000,0.0000000,0.0000040
55.6639060,1.0000000,,-0.9745628,-0.2234703,0.0038808,0.0164847,-0.0031408,-0.0129944,0.0165936,,,,0.9176100,-4.2497969,-11.5936155,0.0000000,0.0000000,0.0000000,0.0200000,0.0002024,0.0000000,0.0000000,0.0000202,0.0000000,0.0000000,0.0000000,0.0002024,0.0000000,0.0000000,0.0000202,0.0000000,0.0000000,0.0000000,0.0002024,0.0000000,0.0000000,0.0000202,0.0000202,0.0000000,0.0000000,0.0000040,0.0000000,0.0000000,0.0000000,0.0000202,0.0000000,0.0000000,0.0000040,0.0000000,0.0000000,0.0000000,0.0000202,0.0000000,0.0000000,0.0000040
55.6839070,1.0005001,,-0.9745819,-0.2233876,0.0037954,0.0165206,-0.0140979,0.1039765,-0.0557062,,,,0.9176100,-4.2497969,-11.5936155,0.0000000,0.0000000,0.0000000,0.0200100,0.0002032,0.0000000,0.0000000,0.0000203,0.0000000,0.0000000,0.0000000,0.0002032,0.0000000,0.0000000,0.0000203,0.0000000,0.0000000,0.0000000,0.0002032,0.0000000,0.0000000,0.0000203,0.0000203,0.0000000,0.0000000,0.0000040,0.0000000,0.0000000,0.0000000,0.0000203,0.0000000,0.0000000,0.0000040,0.0000000,0.0000000,0.0000000,0.0000203,0.0000000,0.0000000,0.0000040
55.6986610,,1.0199200,-0.9745819,-0.2233876,0.0037954,0.0165206,,,,-0.1570588,-0.0759926,0.0000029,0.9144818,-4.2513089,-11.5936155,-0.0003125,-0.0001511,-0.0000000,0.1019920,0.0001991,0.0000000,0.0000000,0.0000199,0.0000000,0.0000000,0.0000000,0.0001991,0.0000000,0.0000000,0.0000199,0.0000000,0.0000000,0.0000000,0.0001991,0.0000000,0.0000000,0.0000199,0.0000199,0.0000000,0.0000000,0.0000040,0.0000000,0.0000000,0.0000000,0.0000199,0.0000000,0.0000000,0.0000040,0.0000000,0.0000000,0.0000000,0.0000199,0.0000000,0.0000000,0.0000040
55.7121640,1.0000000,,-0.9745504,-0.2234723,0.0039925,0.0171687,0.0355384,-0.0302948,-0.0247632,,,,0.9144818,-4.2513089,-11.5936155,0.0000000,0.0000000,0.0000000,0.0200000,0.0001999,0.0000000,0.0000000,0.0000200,0.0000000,0.0000000,0.0000000,0.0001999,0.0000000,0.0000000,0.0000200,0.0000000,0.0000000,0.0000000,0.0001999,0.0000000,0.0000000,0.0000200,0.0000200,0.0000000,0.0000000,0.0000040,0.0000000,0.0000000,0.0000000,0.0000200,0.0000000,0.0000000,0.0000040,0.0000000,0.0000000,0.0000000,0.0000200,0.0000000,0.0000000,0.0000040
55.7258220,1.0994999,,-0.9745609,-0.2234578,0.0037676,0.0168230,-0.0337292,0.0624970,-0.0715018,,,,0.9144813,-4.2513266,-11.5935984,-0.0000458,-0.0016083,0.0015239,0.0219900,0.0002008,0.0000000,0.0000000,0.0000201,0.0000000,0.0000000,0.0000000,0.0002008,0.0000000,0.0000000,0.0000201,0.0000000,0.0000000,0.0000000,0.0002008,0.0000000,0.0000000,0.0000201,0.0000201,0.0000000,0.0000000,0.0000040,0.0000000,0.0000000,0.0000000,0.0000201,0.0000000,0.0000000,0.0000040,0.0000000,0.0000000,0.0000000,0.0000201,0.0000000,0.0000000,0.0000040
55.7471480,1.0000501,,-0.9745330,-0.2235633,0.0036971,0.0170537,-0.0230521,-0.0655914,-0.0658412,,,,0.9144813,-4.2513266,-11.5935984,0.0000000,0.0000000,0.0000000,0.0200010,0.0002016,0.0000000,0.0000000,0.0000201,0.0000000,0.0000000,0.0000000,0.0002016,0.0000000,0.0000000,0.0000201,0.0000000,0.0000000,0.0000000,0.0002016,0.0000000,0.0000000,0.0000201,0.0000201,0.0000000,0.0000000,0.0000040,0.0000000,0.0000000,0.0000000,0.0000201,0.0000000,0.0000000,0.0000040,0.0000000,0.0000000,0.0000000,0.0000201,0.0000000,0.0000000,0.0000040
55.7656620,1.0000000,,-0.9745528,-0.2234735,0.0036340,0.0171226,-0.0267772,0.0094177,-0.0078352,,,,0.9144813,-4.2513266,-11.5935984,0.0000000,0.0000000,0.0000000,0.0200000,0.0002024,0.0000000,0.0000000,0.0000202,0.0000000,0.0000000,0.0000000,0.0002024,0.0000000,0.0000000,0.0000202,0.0000000,0.0000000,0.0000000,0.0002024,0.0000000,0.0000000,0.0000202,0.0000202,0.0000000,0.0000000,0.0000040,0.0000000,0.0000000,0.0000000,0.0000202,0.0000000,0.0000000,0.0000040,0.0000000,0.0000000,0.0000000,0.0000202,0.0000000,0.0000000,0.0000040
55.7857140,0.9999500,,-0.9745487,-0.2235166,0.0034736,0.0168180,-0.0324010,0.0759903,-0.0527839,,,,0.9144813,-4.2513266,-11.5935984,0.0000000,0.0000000,0.0000000,0.0199990,0.0002032,0.0000000,0.0000000,0.0000203,0.0000000,0.0000000,0.0000000,0.0002032,0.0000000,0.0000000,0.0000203,0.0000000,0.0000000,0.0000000,0.0002032,0.0000000,0.0000000,0.0000203,0.0000203,0.0000000,0.0000000,0.0000040,0.0000000,0.0000000,0.0000000,0.0000203,0.0000000,0.0000000,0.0000040,0.0000000,0.0000000,0.0000000,0.0000203,0.0000000,0.0000000,0.0000040
55.8017400,,1.0200100,-0.9745487,-0.2235166,0.0034736,0.0168180,,,,-0.1397792,-0.0763131,-0.0003860,0.9116972,-4.2528462,-11.5936060,-0.0002781,-0.0001518,-0.0000008,0.1020010,0.0001992,0.0000000,0.0000000,0.0000199,0.0000000,0.0000000,0.0000000,0.0001992,0.0000000,0.0000000,0.0000199,0.0000000,0.0000000,0.0000000,0.0001992,0.0000000,0.0000000,0.0000199,0.0000199,0.0000000,0.0000000,0.0000040,0.0000000,0.0000000,0.0000000,0.0000199,0.0000000,0.0000000,0.0000040,0.0000000,0.0000000,0.0000000,0.0000199,0.0000000,0.0000000,0.0000040
55.8152980,1.0006500,,-0.9745431,-0.2235158,0.0033402,0.0171778,0.0638166,0.0455559,0.0152875,,,,0.9116972,-4.2528462,-11.5936060,0.0000000,0.0000000,0.0000000,0.0200130,0.0002000,0.0000000,0.0000000,0.0000200,0.0000000,0.0000000,0.0000000,0.0002000,0.0000000,0.0000000,0.0000200,0.0000000,0.0000000,0.0000000,0.0002000,0.0000000,0.0000000,0.0000200,0.0000200,0.0000000,0.0000000,0.0000040,0.0000000,0.0000000,0.0000000,0.0000200,0.0000000,0.0000000,0.0000040,0.0000000,0.0000000,0.0000000,0.0000200,0.0000000,0.0000000,0.0000040
55.8285510,1.1493001,,-0.9745501,-0.2234982,0.0031148,0.0170510,0.0028708,-0.0001179,-0.0282907,,,,0.9116972,-4.2528462,-11.5936060,0.0000000,0.0000000,0.0000000,0.0229860,0.0002009,0.0000000,0.0000000,0.0000201,0.0000000,0.0000000,0.0000000,0.0002009,0.0000000,0.0000000,0.0000201,0.0000000,0.0000000,0.0000000,0.0002009,0.0000000,0.0000000,0.0000201,0.0000201,0.0000000,0.0000000,0.0000040,0.0000000,0.0000000,0.0000000,0.0000201,0.0000000,0.0000000,0.0000040,0.0000000,0.0000000,0.0000000,0.0000201,0.0000000,0.0000000,0.0000040
55.8511880,1.0501001,,-0.9745475,-0.2234921,0.0031517,0.0172737,0.0108882,-0.0294092,0.0929637,,,,0.9116963,-4.2528386,-11.5936260,-0.0000902,0.0007182,-0.0019292,0.0210020,0.0002017,0.0000000,0.0000000,0.0000202,0.0000000,0.0000000,0.0000000,0.0002017,0.0000000,0.0000000,0.0000202,0.0000000,0.0000000,0.0000000,0.0002017,0.0000000,0.0000000,0.0000202,0.0000202,0.0000000,0.0000000,0.0000040,0.0000000,0.0000000,0.0000000,0.0000202,0.0000000,0.0000000,0.0000040,0.0000000,0.0000000,0.0000000,0.0000202,0.0000000,0.0000000,0.0000040
55.8697680,1.0000000,,-0.9745662,-0.2234487,0.0030372,0.0167855,0.0171095,0.0968066,-0.0131113,,,,0.9116963,-4.2528386,-11.5936260,0.0000000,0.0000000,0.0000000,0.0200000,0.0002025,0.0000000,0.0000000,0.0000202,0.0000000,0.0000000,0.0000000,0.0002025,0.0000000,0.0000000,0.0000202,0.0000000,0.0000000,0.0000000,0.0002025,0.0000000,0.0000000,0.0000202,0.0000202,0.0000000,0.0000000,0.0000040,0.0000000,0.0000000,0.0000000,0.0000202,0.0000000,0.0000000,0.0000040,0.0000000,0.0000000,0.0000000,0.0000202,0.0000000,0.0000000,0.0000040
55.8900210,1.0000501,,-0.9745375,-0.2235478,0.0031021,0.0171199,0.0333731,-0.0676627,0.0053386,,,,0.9116963,-4.2528386,-11.5936260,0.0000000,0.0000000,0.0000000,0.0200010,0.0002033,0.0000000,0.0000000,0.0000203,0.0000000,0.0000000,0.0000000,0.0002033,0.0000000,0.0000000,0.0000203,0.0000000,0.0000000,0.0000000,0.0002033,0.0000000,0.0000000,0.0000203,0.0000203,0.0000000,0.0000000,0.0000040,0.0000000,0.0000000,0.0000000,0.0000203,0.0000000,0.0000000,0.0000040,0.0000000,0.0000000,0.0000000,0.0000203,0.0000000,0.0000000,0.0000040
55.9069590,,0.9999900,-0.9745375,-0.2235478,0.0031021,0.0169950,,,,-0.1604332,-0.0864958,-0.0005686,0.9084989,-4.2545624,-11.5936365,-0.0003194,-0.0001722,-0.0000011,0.0999990,0.0001993,0.0000000,0.0000000,0.0000199,0.0000000,0.0000000,0.0000000,0.0001993,0.0000000,0.0000000,0.0000199,0.0000000,0.0000000,0.0000000,0.0001993,0.0000000,0.0000000,0.0000199,0.0000199,0.0000000,0.0000000,0.0000040,0.0000000,0.0000000,0.0000000,0.0000199,0.0000000,0.0000000,0.0000040,0.0000000,0.0000000,0.0000000,0.0000199,0.0000000,0.0000000,0.0000040
55.9199630,1.0001000,,-0.9745560,-0.2234781,0.0030076,0.0169950,0.0265056,0.0797017,-0.0408335,,,,0.9084989,-4.2545624,-11.5936365,0.0000000,0.0000000,0.0000000,0.0200020,0.0002001,0.0000000,0.0000000,0.0000200,0.0000000,0.0000000,0.0000000,0.0002001,0.0000000,0.0000000,0.0000200,0.0000000,0.0000000,0.0000000,0.0002001,0.0000000,0.0000000,0.0000200,0.0000200,0.0000000,0.0000000,0.0000040,0.0000000,0.0000000,0.0000000,0.0000200,0.0000000,0.0000000,0.0000040,0.0000000,0.0000000,0.0000000,0.0000200,0.0000000,0.0000000,0.0000040
55.9346480,1.2497500,,-0.9745413,-0.2235409,0.0029503,0.0170263,0.0095754,-0.0432180,0.0098033,,,,0.9084989,-4.2545624,-11.5936365,0.0000000,0.0000000,0.0000000,0.0249950,0.0002011,0.0000000,0.0000000,0.0000201,0.0000000,0.0000000,0.0000000,0.0002011,0.0000000,0.0000000,0.0000201,0.0000000,0.0000000,0.0000000,0.0002011,0.0000000,0.0000000,0.0000201,0.0000201,0.0000000,0.0000000,0.0000040,0.0000000,0.0000000,0.0000000,0.0000201,0.0000000,0.0000000,0.0000040,0.0000000,0.0000000,0.0000000,0.0000201,0.0000000,0.0000000,0.0000040
55.9557320,1.0501001,,-0.9745771,-0.2234031,0.0027988,0.0168121,-0.0053670,0.1797307,-0.0822947,,,,0.9085153,-4.2545991,-11.5936193,0.0015643,-0.0034994,0.0015987,0.0210020,0.0002019,0.0000000,0.0000000,0.0000202,0.0000000,0.0000000,0.0000000,0.0002019,0.0000000,0.0000000,0.0000202,0.0000000,0.0000000,0.0000000,0.0002019,0.0000000,0.0000000,0.0000202,0.0000202,0.0000000,0.0000000,0.0000040,0.0000000,0.0000000,0.0000000,0.0000202,0.0000000,0.0000000,0.0000040,0.0000000,0.0000000,0.0000000,0.0000202,0.0000000,0.0000000,0.0000040
55.9769020,1.0503000,,-0.9745569,-0.2234844,0.0027713,0.0169051,0.0101110,0.0569979,-0.0831853,,,,0.9085153,-4.2545991,-11.5936193,0.0000000,0.0000000,0.0000000,0.0210060,0.0002028,0.0000000,0.0000000,0.0000203,0.0000000,0.0000000,0.0000000,0.0002028,0.0000000,0.0000000,0.0000203,0.0000000,0.0000000,0.0000000,0.0002028,0.0000000,0.0000000,0.0000203,0.0000203,0.0000000,0.0000000,0.0000040,0.0000000,0.0000000,0.0000000,0.0000203,0.0000000,0.0000000,0.0000040,0.0000000,0.0000000,0.0000000,0.0000203,0.0000000,0.0000000,0.0000040
55.9965910,,1.0099900,-0.9745466,-0.2234849,0.0028528,0.0174603,,,,-0.1362394,-0.0661228,-0.0003317,0.9058072,-4.2559128,-11.5936260,-0.0002705,-0.0001312,-0.0000007,0.1009990,0.0001988,0.0000000,0.0000000,0.0000199,0.0000000,0.0000000,0.0000000,0.0001988,0.0000000,0.0000000,0.0000199,0.0000000,0.0000000,0.0000000,0.0001988,0.0000000,0.0000000,0.0000199,0.0000199,0.0000000,0.0000000,0.0000040,0.0000000,0.0000000,0.0000000,0.0000199,0.0000000,0.0000000,0.0000040,0.0000000,0.0000000,0.0000000,0.0000199,0.0000000,0.0000000,0.0000040
56.0102210,0.9997500,,-0.9745466,-0.2234849,0.0028528,0.0174603,0.0424700,-0.0362899,0.0186261,,,,0.9058062,-4.2559052,-11.5936298,0.0001728,0.0009037,-0.0003454,0.0199950,0.0001995,0.0000000,0.0000000,0.0000199,0.0000000,0.0000000,0.0000000,0.0001995,0.0000000,0.0000000,0.0000199,0.0000000,0.0000000,0.0000000,0.0001995,0.0000000,0.0000000,0.0000199,0.0000199,0.0000000,0.0000000,0.0000040,0.0000000,0.0000000,0.0000000,0.0000199,0.0000000,0.0000000,0.0000040,0.0000000,0.0000000,0.0000000,0.0000199,0.0000000,0.0000000,0.0000040
56.0237090,1.3499501,,-0.9744598,-0.2237721,0.0032100,0.0185045,-0.0275168,0.0703103,0.0013556,,,,0.9058062,-4.2559052,-11.5936298,0.0000000,0.0000000,0.0000000,0.0269990,0.0002006,0.0000000,0.0000000,0.0000200,0.0000000,0.0000000,0.0000000,0.0002006,0.0000000,0.0000000,0.0000200,0.0000000,0.0000000,0.0000000,0.0002006,0.0000000,0.0000000,0.0000200,0.0000200,0.0000000,0.0000000,0.0000040,0.0000000,0.0000000,0.0000000,0.0000200,0.0000000,0.0000000,0.0000040,0.0000000,0.0000000,0.0000000,0.0000200,0.0000000,0.0000000,0.0000040
