t,predict_cpu,update_cpu,quat_x,quat_y,quat_z,quat_w,accel_x,accel_y,accel_z,of_x,of_y,of_z,x_x,x_y,x_z,x_vx,x_vy,x_vz,dt,P_0,P_1,P_2,P_3,P_4,P_5,P_6,P_7,P_8,P_9,P_10,P_11,P_12,P_13,P_14,P_15,P_16,P_17,P_18,P_19,P_20,P_21,P_22,P_23,P_24,P_25,P_26,P_27,P_28,P_29,P_30,P_31,P_32,P_33,P_34,P_35
71.7556340,1.0494500,,-0.9017239,-0.4323036,0.0006340,0.0026711,-0.0066360,-0.0037794,0.0102817,,,,3.1692135,-6.6528897,-21.3253708,0.0000000,0.0000000,0.0000000,0.0209890,0.0656925,0.0000000,0.0000000,0.0085495,0.0000000,0.0000000,0.0000000,0.0656925,0.0000000,0.0000000,0.0085495,0.0000000,0.0000000,0.0000000,0.0656925,0.0000000,0.0000000,0.0085495,0.0085495,0.0000000,0.0000000,0.0022089,0.0000000,0.0000000,0.0000000,0.0085495,0.0000000,0.0000000,0.0022089,0.0000000,0.0000000,0.0000000,0.0085495,0.0000000,0.0000000,0.0022089
71.7782350,1.0498999,,-0.9017240,-0.4323036,0.0006286,0.0026552,-0.0019371,0.0012536,-0.0002303,,,,3.1692135,-6.6528897,-21.3253708,0.0000000,0.0000000,0.0000000,0.0209980,0.0660515,0.0000000,0.0000000,0.0085959,0.0000000,0.0000000,0.0000000,0.0660515,0.0000000,0.0000000,0.0085959,0.0000000,0.0000000,0.0000000,0.0660515,0.0000000,0.0000000,0.0085959,0.0085959,0.0000000,0.0000000,0.0022149,0.0000000,0.0000000,0.0000000,0.0085959,0.0000000,0.0000000,0.0022149,0.0000000,0.0000000,0.0000000,0.0085959,0.0000000,0.0000000,0.0022149
71.7940090,,1.0199400,-0.9017240,-0.4323036,0.0006286,0.0026494,,,,0.0000000,0.0000000,0.0000000,3.1692135,-6.6528897,-21.3253708,0.0000000,0.0000000,0.0000000,0.1019940,0.0643426,0.0000000,0.0000000,0.0083735,0.0000000,0.0000000,0.0000000,0.0643426,0.0000000,0.0000000,0.0083735,0.0000000,0.0000000,0.0000000,0.0643426,0.0000000,0.0000000,0.0083735,0.0083735,0.0000000,0.0000000,0.0021860,0.0000000,0.0000000,0.0000000,0.0083735,0.0000000,0.0000000,0.0021860,0.0000000,0.0000000,0.0000000,0.0083735,0.0000000,0.0000000,0.0021860
71.8078150,1.0002999,,-0.9017240,-0.4323036,0.0006342,0.0026494,0.0001759,-0.0003726,0.0037911,,,,3.1692135,-6.6528897,-21.3253708,0.0000000,0.0000000,0.0000000,0.0200060,0.0646776,0.0000000,0.0000000,0.0084173,0.0000000,0.0000000,0.0000000,0.0646776,0.0000000,0.0000000,0.0084173,0.0000000,0.0000000,0.0000000,0.0646776,0.0000000,0.0000000,0.0084173,0.0084173,0.0000000,0.0000000,0.0021917,0.0000000,0.0000000,0.0000000,0.0084173,0.0000000,0.0000000,0.0021917,0.0000000,0.0000000,0.0000000,0.0084173,0.0000000,0.0000000,0.0021917
71.8205850,1.1997001,,-0.9017239,-0.4323037,0.0006038,0.0026891,0.0050470,-0.0045580,-0.0020183,,,,3.1692135,-6.6528897,-21.3253708,0.0000000,0.0000000,0.0000000,0.0239940,0.0650816,0.0000000,0.0000000,0.0084700,0.0000000,0.0000000,0.0000000,0.0650816,0.0000000,0.0000000,0.0084700,0.0000000,0.0000000,0.0000000,0.0650816,0.0000000,0.0000000,0.0084700,0.0084700,0.0000000,0.0000000,0.0021985,0.0000000,0.0000000,0.0000000,0.0084700,0.0000000,0.0000000,0.0021985,0.0000000,0.0000000,0.0000000,0.0084700,0.0000000,0.0000000,0.0021985
71.8419200,1.0504500,,-0.9017237,-0.4323037,0.0005894,0.0027127,0.0016156,-0.0051782,-0.0029699,,,,3.1692135,-6.6528897,-21.3253708,0.0000000,0.0000000,0.0000000,0.0210090,0.0654375,0.0000000,0.0000000,0.0085162,0.0000000,0.0000000,0.0000000,0.0654375,0.0000000,0.0000000,0.0085162,0.0000000,0.0000000,0.0000000,0.0654375,0.0000000,0.0000000,0.0085162,0.0085162,0.0000000,0.0000000,0.0022046,0.0000000,0.0000000,0.0000000,0.0085162,0.0000000,0.0000000,0.0022046,0.0000000,0.0000000,0.0000000,0.0085162,0.0000000,0.0000000,0.0022046
71.8642000,1.0496501,,-0.9017237,-0.4323038,0.0005723,0.0027128,0.0028220,-0.0035580,0.0002164,,,,3.1692135,-6.6528897,-21.3253708,0.0000000,0.0000000,0.0000000,0.0209930,0.0657950,0.0000000,0.0000000,0.0085626,0.0000000,0.0000000,0.0000000,0.0657950,0.0000000,0.0000000,0.0085626,0.0000000,0.0000000,0.0000000,0.0657950,0.0000000,0.0000000,0.0085626,0.0085626,0.0000000,0.0000000,0.0022106,0.0000000,0.0000000,0.0000000,0.0085626,0.0000000,0.0000000,0.0022106,0.0000000,0.0000000,0.0000000,0.0085626,0.0000000,0.0000000,0.0022106
71.8828370,0.9999000,,-0.9017237,-0.4323038,0.0005660,0.0027134,0.0017238,-0.0000624,0.0018096,,,,3.1692135,-6.6528897,-21.3253708,0.0000000,0.0000000,0.0000000,0.0199980,0.0661375,0.0000000,0.0000000,0.0086068,0.0000000,0.0000000,0.0000000,0.0661375,0.0000000,0.0000000,0.0086068,0.0000000,0.0000000,0.0000000,0.0661375,0.0000000,0.0000000,0.0086068,0.0086068,0.0000000,0.0000000,0.0022163,0.0000000,0.0000000,0.0000000,0.0086068,0.0000000,0.0000000,0.0022163,0.0000000,0.0000000,0.0000000,0.0086068,0.0000000,0.0000000,0.0022163
71.8986960,,0.9999600,-0.9017237,-0.4323038,0.0005660,0.0027134,,,,0.0000000,0.0000000,0.0000000,3.1692135,-6.6528897,-21.3253708,0.0000000,0.0000000,0.0000000,0.0999960,0.0644242,0.0000000,0.0000000,0.0083839,0.0000000,0.0000000,0.0000000,0.0644242,0.0000000,0.0000000,0.0083839,0.0000000,0.0000000,0.0000000,0.0644242,0.0000000,0.0000000,0.0083839,0.0083839,0.0000000,0.0000000,0.0021873,0.0000000,0.0000000,0.0000000,0.0083839,0.0000000,0.0000000,0.0021873,0.0000000,0.0000000,0.0000000,0.0083839,0.0000000,0.0000000,0.0021873
71.9127080,1.0000000,,-0.9017237,-0.4323038,0.0005709,0.0027072,0.0021742,0.0021661,0.0035903,,,,3.1692135,-6.6528897,-21.3253708,0.0000000,0.0000000,0.0000000,0.0200000,0.0647596,0.0000000,0.0000000,0.0084277,0.0000000,0.0000000,0.0000000,0.0647596,0.0000000,0.0000000,0.0084277,0.0000000,0.0000000,0.0000000,0.0647596,0.0000000,0.0000000,0.0084277,0.0084277,0.0000000,0.0000000,0.0021930,0.0000000,0.0000000,0.0000000,0.0084277,0.0000000,0.0000000,0.0021930,0.0000000,0.0000000,0.0000000,0.0084277,0.0000000,0.0000000,0.0021930
71.9255890,1.1500000,,-0.9017237,-0.4323038,0.0005777,0.0027059,-0.0007745,-0.0008625,0.0032524,,,,3.1692135,-6.6528897,-21.3253708,0.0000000,0.0000000,0.0000000,0.0230000,0.0651472,0.0000000,0.0000000,0.0084782,0.0000000,0.0000000,0.0000000,0.0651472,0.0000000,0.0000000,0.0084782,0.0000000,0.0000000,0.0000000,0.0651472,0.0000000,0.0000000,0.0084782,0.0084782,0.0000000,0.0000000,0.0021996,0.0000000,0.0000000,0.0000000,0.0084782,0.0000000,0.0000000,0.0021996,0.0000000,0.0000000,0.0000000,0.0084782,0.0000000,0.0000000,0.0021996
71.9469350,1.0504500,,-0.9017237,-0.4323038,0.0005631,0.0027318,0.0033130,-0.0006296,0.0033275,,,,3.1692135,-6.6528897,-21.3253708,0.0000000,0.0000000,0.0000000,0.0210090,0.0655035,0.0000000,0.0000000,0.0085245,0.0000000,0.0000000,0.0000000,0.0655035,0.0000000,0.0000000,0.0085245,0.0000000,0.0000000,0.0000000,0.0655035,0.0000000,0.0000000,0.0085245,0.0085245,0.0000000,0.0000000,0.0022056,0.0000000,0.0000000,0.0000000,0.0085245,0.0000000,0.0000000,0.0022056,0.0000000,0.0000000,0.0000000,0.0085245,0.0000000,0.0000000,0.0022056
71.9691910,1.0496501,,-0.9017237,-0.4323038,0.0005735,0.0027319,0.0007639,0.0026454,0.0009237,,,,3.1692135,-6.6528897,-21.3253708,0.0000000,0.0000000,0.0000000,0.0209930,0.0658614,0.0000000,0.0000000,0.0085708,0.0000000,0.0000000,0.0000000,0.0658614,0.0000000,0.0000000,0.0085708,0.0000000,0.0000000,0.0000000,0.0658614,0.0000000,0.0000000,0.0085708,0.0085708,0.0000000,0.0000000,0.0022116,0.0000000,0.0000000,0.0000000,0.0085708,0.0000000,0.0000000,0.0022116,0.0000000,0.0000000,0.0000000,0.0085708,0.0000000,0.0000000,0.0022116
71.9883990,,0.9999700,-0.9017237,-0.4323037,0.0005910,0.0027217,,,,0.0000000,0.0000000,0.0000000,3.1692135,-6.6528897,-21.3253708,0.0000000,0.0000000,0.0000000,0.0999970,0.0641622,0.0000000,0.0000000,0.0083497,0.0000000,0.0000000,0.0000000,0.0641622,0.0000000,0.0000000,0.0083497,0.0000000,0.0000000,0.0000000,0.0641622,0.0000000,0.0000000,0.0083497,0.0083497,0.0000000,0.0000000,0.0021828,0.0000000,0.0000000,0.0000000,0.0083497,0.0000000,0.0000000,0.0021828,0.0000000,0.0000000,0.0000000,0.0083497,0.0000000,0.0000000,0.0021828
72.0017600,0.9999500,,-0.9017237,-0.4323037,0.0005910,0.0027217,-0.0004802,0.0028104,0.0026515,,,,3.1692135,-6.6528897,-21.3253708,0.0000000,0.0000000,0.0000000,0.0199990,0.0644962,0.0000000,0.0000000,0.0083934,0.0000000,0.0000000,0.0000000,0.0644962,0.0000000,0.0000000,0.0083934,0.0000000,0.0000000,0.0000000,0.0644962,0.0000000,0.0000000,0.0083934,0.0083934,0.0000000,0.0000000,0.0021885,0.0000000,0.0000000,0.0000000,0.0083934,0.0000000,0.0000000,0.0021885,0.0000000,0.0000000,0.0000000,0.0083934,0.0000000,0.0000000,0.0021885
72.0148010,1.3499501,,-0.9017239,-0.4323038,0.0005832,0.0026850,0.0101206,0.0096602,0.0008375,,,,3.1692135,-6.6528897,-21.3253708,0.0000000,0.0000000,0.0000000,0.0269990,0.0649494,0.0000000,0.0000000,0.0084526,0.0000000,0.0000000,0.0000000,0.0649494,0.0000000,0.0000000,0.0084526,0.0000000,0.0000000,0.0000000,0.0649494,0.0000000,0.0000000,0.0084526,0.0084526,0.0000000,0.0000000,0.0021963,0.0000000,0.0000000,0.0000000,0.0084526,0.0000000,0.0000000,0.0021963,0.0000000,0.0000000,0.0000000,0.0084526,0.0000000,0.0000000,0.0021963
72.0351280,1.0003500,,-0.9017239,-0.4323038,0.0005770,0.0026753,0.0056478,0.0035789,0.0016394,,,,3.1692135,-6.6528897,-21.3253708,0.0000000,0.0000000,0.0000000,0.0200070,0.0652876,0.0000000,0.0000000,0.0084966,0.0000000,0.0000000,0.0000000,0.0652876,0.0000000,0.0000000,0.0084966,0.0000000,0.0000000,0.0000000,0.0652876,0.0000000,0.0000000,0.0084966,0.0084966,0.0000000,0.0000000,0.0022020,0.0000000,0.0000000,0.0000000,0.0084966,0.0000000,0.0000000,0.0022020,0.0000000,0.0000000,0.0000000,0.0084966,0.0000000,0.0000000,0.0022020
72.0547730,0.9998000,,-0.9017239,-0.4323038,0.0005527,0.0026740,0.0067912,-0.0002095,0.0061908,,,,3.1692135,-6.6528897,-21.3253708,0.0000000,0.0000000,0.0000000,0.0199960,0.0656274,0.0000000,0.0000000,0.0085407,0.0000000,0.0000000,0.0000000,0.0656274,0.0000000,0.0000000,0.0085407,0.0000000,0.0000000,0.0000000,0.0656274,0.0000000,0.0000000,0.0085407,0.0085407,0.0000000,0.0000000,0.0022077,0.0000000,0.0000000,0.0000000,0.0085407,0.0000000,0.0000000,0.0022077,0.0000000,0.0000000,0.0000000,0.0085407,0.0000000,0.0000000,0.0022077
72.0749930,1.0002999,,-0.9017239,-0.4323039,0.0005282,0.0026716,0.0019689,0.0030157,-0.0010550,,,,3.1692135,-6.6528897,-21.3253708,0.0000000,0.0000000,0.0000000,0.0200060,0.0659691,0.0000000,0.0000000,0.0085849,0.0000000,0.0000000,0.0000000,0.0659691,0.0000000,0.0000000,0.0085849,0.0000000,0.0000000,0.0000000,0.0659691,0.0000000,0.0000000,0.0085849,0.0085849,0.0000000,0.0000000,0.0022134,0.0000000,0.0000000,0.0000000,0.0085849,0.0000000,0.0000000,0.0022134,0.0000000,0.0000000,0.0000000,0.0085849,0.0000000,0.0000000,0.0022134
72.0907560,,1.0000199,-0.9017239,-0.4323039,0.0005282,0.0026716,,,,0.0000000,0.0000000,0.0000000,3.1692135,-6.6528897,-21.3253708,0.0000000,0.0000000,0.0000000,0.1000020,0.0642644,0.0000000,0.0000000,0.0083630,0.0000000,0.0000000,0.0000000,0.0642644,0.0000000,0.0000000,0.0083630,0.0000000,0.0000000,0.0000000,0.0642644,0.0000000,0.0000000,0.0083630,0.0083630,0.0000000,0.0000000,0.0021846,0.0000000,0.0000000,0.0000000,0.0083630,0.0000000,0.0000000,0.0021846,0.0000000,0.0000000,0.0000000,0.0083630,0.0000000,0.0000000,0.0021846
72.1046000,0.9996000,,-0.9017239,-0.4323039,0.0005350,0.0026804,0.0003131,0.0031939,-0.0015041,,,,3.1692135,-6.6528897,-21.3253708,0.0000000,0.0000000,0.0000000,0.0199920,0.0645988,0.0000000,0.0000000,0.0084068,0.0000000,0.0000000,0.0000000,0.0645988,0.0000000,0.0000000,0.0084068,0.0000000,0.0000000,0.0000000,0.0645988,0.0000000,0.0000000,0.0084068,0.0084068,0.0000000,0.0000000,0.0021903,0.0000000,0.0000000,0.0000000,0.0084068,0.0000000,0.0000000,0.0021903,0.0000000,0.0000000,0.0000000,0.0084068,0.0000000,0.0000000,0.0021903
72.1177110,1.1499500,,-0.9017238,-0.4323039,0.0005424,0.0026979,0.0043680,0.0033136,0.0024142,,,,3.1692135,-6.6528897,-21.3253708,0.0000000,0.0000000,0.0000000,0.0229990,0.0649855,0.0000000,0.0000000,0.0084572,0.0000000,0.0000000,0.0000000,0.0649855,0.0000000,0.0000000,0.0084572,0.0000000,0.0000000,0.0000000,0.0649855,0.0000000,0.0000000,0.0084572,0.0084572,0.0000000,0.0000000,0.0021969,0.0000000,0.0000000,0.0000000,0.0084572,0.0000000,0.0000000,0.0021969,0.0000000,0.0000000,0.0000000,0.0084572,0.0000000,0.0000000,0.0021969
72.1390350,1.0502001,,-0.9017238,-0.4323038,0.0005784,0.0026968,-0.0045299,-0.0019901,0.0004670,,,,3.1692135,-6.6528897,-21.3253708,0.0000000,0.0000000,0.0000000,0.0210040,0.0653408,0.0000000,0.0000000,0.0085034,0.0000000,0.0000000,0.0000000,0.0653408,0.0000000,0.0000000,0.0085034,0.0000000,0.0000000,0.0000000,0.0653408,0.0000000,0.0000000,0.0085034,0.0085034,0.0000000,0.0000000,0.0022029,0.0000000,0.0000000,0.0000000,0.0085034,0.0000000,0.0000000,0.0022029,0.0000000,0.0000000,0.0000000,0.0085034,0.0000000,0.0000000,0.0022029
72.1589190,0.9999500,,-0.9017239,-0.4323038,0.0005960,0.0026899,-0.0079946,-0.0063661,-0.0000106,,,,3.1692135,-6.6528897,-21.3253708,0.0000000,0.0000000,0.0000000,0.0199990,0.0656809,0.0000000,0.0000000,0.0085475,0.0000000,0.0000000,0.0000000,0.0656809,0.0000000,0.0000000,0.0085475,0.0000000,0.0000000,0.0000000,0.0656809,0.0000000,0.0000000,0.0085475,0.0085475,0.0000000,0.0000000,0.0022086,0.0000000,0.0000000,0.0000000,0.0085475,0.0000000,0.0000000,0.0022086,0.0000000,0.0000000,0.0000000,0.0085475,0.0000000,0.0000000,0.0022086
72.1791080,0.9998500,,-0.9017239,-0.4323037,0.0006090,0.0026865,-0.0094752,-0.0046403,-0.0009819,,,,3.1692135,-6.6528897,-21.3253708,0.0000000,0.0000000,0.0000000,0.0199970,0.0660228,0.0000000,0.0000000,0.0085917,0.0000000,0.0000000,0.0000000,0.0660228,0.0000000,0.0000000,0.0085917,0.0000000,0.0000000,0.0000000,0.0660228,0.0000000,0.0000000,0.0085917,0.0085917,0.0000000,0.0000000,0.0022143,0.0000000,0.0000000,0.0000000,0.0085917,0.0000000,0.0000000,0.0022143,0.0000000,0.0000000,0.0000000,0.0085917,0.0000000,0.0000000,0.0022143
72.1975160,,1.0199900,-0.9017239,-0.4323037,0.0006253,0.0026990,,,,0.0000000,0.0000000,0.0000000,3.1692135,-6.6528897,-21.3253708,0.0000000,0.0000000,0.0000000,0.1019990,0.0643153,0.0000000,0.0000000,0.0083696,0.0000000,0.0000000,0.0000000,0.0643153,0.0000000,0.0000000,0.0083696,0.0000000,0.0000000,0.0000000,0.0643153,0.0000000,0.0000000,0.0083696,0.0083696,0.0000000,0.0000000,0.0021854,0.0000000,0.0000000,0.0000000,0.0083696,0.0000000,0.0000000,0.0021854,0.0000000,0.0000000,0.0000000,0.0083696,0.0000000,0.0000000,0.0021854
72.2106310,1.0002501,,-0.9017239,-0.4323037,0.0006253,0.0026990,-0.0019071,-0.0074089,0.0034077,,,,3.1692135,-6.6528897,-21.3253708,0.0000000,0.0000000,0.0000000,0.0200050,0.0646502,0.0000000,0.0000000,0.0084133,0.0000000,0.0000000,0.0000000,0.0646502,0.0000000,0.0000000,0.0084133,0.0000000,0.0000000,0.0000000,0.0646502,0.0000000,0.0000000,0.0084133,0.0084133,0.0000000,0.0000000,0.0021911,0.0000000,0.0000000,0.0000000,0.0084133,0.0000000,0.0000000,0.0021911,0.0000000,0.0000000,0.0000000,0.0084133,0.0000000,0.0000000,0.0021911
72.2239290,1.2501500,,-0.9017239,-0.4323037,0.0006121,0.0027010,0.0037919,0.0014377,0.0009638,,,,3.1692135,-6.6528897,-21.3253708,0.0000000,0.0000000,0.0000000,0.0250030,0.0650709,0.0000000,0.0000000,0.0084682,0.0000000,0.0000000,0.0000000,0.0650709,0.0000000,0.0000000,0.0084682,0.0000000,0.0000000,0.0000000,0.0650709,0.0000000,0.0000000,0.0084682,0.0084682,0.0000000,0.0000000,0.0021983,0.0000000,0.0000000,0.0000000,0.0084682,0.0000000,0.0000000,0.0021983,0.0000000,0.0000000,0.0000000,0.0084682,0.0000000,0.0000000,0.0021983
72.2441430,0.9997500,,-0.9017239,-0.4323038,0.0005882,0.0026892,0.0002785,0.0060671,0.0036557,,,,3.1692135,-6.6528897,-21.3253708,0.0000000,0.0000000,0.0000000,0.0199950,0.0654096,0.0000000,0.0000000,0.0085122,0.0000000,0.0000000,0.0000000,0.0654096,0.0000000,0.0000000,0.0085122,0.0000000,0.0000000,0.0000000,0.0654096,0.0000000,0.0000000,0.0085122,0.0085122,0.0000000,0.0000000,0.0022040,0.0000000,0.0000000,0.0000000,0.0085122,0.0000000,0.0000000,0.0022040,0.0000000,0.0000000,0.0000000,0.0085122,0.0000000,0.0000000,0.0022040
72.2640570,1.0002501,,-0.9017239,-0.4323038,0.0005684,0.0026810,0.0016804,0.0069016,0.0013396,,,,3.1692135,-6.6528897,-21.3253708,0.0000000,0.0000000,0.0000000,0.0200050,0.0657501,0.0000000,0.0000000,0.0085563,0.0000000,0.0000000,0.0000000,0.0657501,0.0000000,0.0000000,0.0085563,0.0000000,0.0000000,0.0000000,0.0657501,0.0000000,0.0000000,0.0085563,0.0085563,0.0000000,0.0000000,0.0022097,0.0000000,0.0000000,0.0000000,0.0085563,0.0000000,0.0000000,0.0022097,0.0000000,0.0000000,0.0000000,0.0085563,0.0000000,0.0000000,0.0022097
72.2862070,1.0501500,,-0.9017239,-0.4323040,0.0005404,0.0026456,0.0040827,0.0067620,-0.0037247,,,,3.1692135,-6.6528897,-21.3253708,0.0000000,0.0000000,0.0000000,0.0210030,0.0661096,0.0000000,0.0000000,0.0086028,0.0000000,0.0000000,0.0000000,0.0661096,0.0000000,0.0000000,0.0086028,0.0000000,0.0000000,0.0000000,0.0661096,0.0000000,0.0000000,0.0086028,0.0086028,0.0000000,0.0000000,0.0022157,0.0000000,0.0000000,0.0000000,0.0086028,0.0000000,0.0000000,0.0022157,0.0000000,0.0000000,0.0000000,0.0086028,0.0000000,0.0000000,0.0022157
72.3010500,,0.9999900,-0.9017239,-0.4323040,0.0005404,0.0026145,,,,0.0000000,0.0000000,0.0000000,3.1692135,-6.6528897,-21.3253708,0.0000000,0.0000000,0.0000000,0.0999990,0.0643977,0.0000000,0.0000000,0.0083801,0.0000000,0.0000000,0.0000000,0.0643977,0.0000000,0.0000000,0.0083801,0.0000000,0.0000000,0.0000000,0.0643977,0.0000000,0.0000000,0.0083801,0.0083801,0.0000000,0.0000000,0.0021867,0.0000000,0.0000000,0.0000000,0.0083801,0.0000000,0.0000000,0.0021867,0.0000000,0.0000000,0.0000000,0.0083801,0.0000000,0.0000000,0.0021867
72.3149000,0.9998500,,-0.9017240,-0.4323041,0.0005082,0.0026145,0.0003781,0.0095837,-0.0084542,,,,3.1692135,-6.6528897,-21.3253708,0.0000000,0.0000000,0.0000000,0.0199970,0.0647328,0.0000000,0.0000000,0.0084238,0.0000000,0.0000000,0.0000000,0.0647328,0.0000000,0.0000000,0.0084238,0.0000000,0.0000000,0.0000000,0.0647328,0.0000000,0.0000000,0.0084238,0.0084238,0.0000000,0.0000000,0.0021925,0.0000000,0.0000000,0.0000000,0.0084238,0.0000000,0.0000000,0.0021925,0.0000000,0.0000000,0.0000000,0.0084238,0.0000000,0.0000000,0.0021925
72.3277820,1.1496000,,-0.9017240,-0.4323041,0.0004807,0.0026170,-0.0012605,-0.0014337,0.0004116,,,,3.1692135,-6.6528897,-21.3253708,0.0000000,0.0000000,0.0000000,0.0229920,0.0651202,0.0000000,0.0000000,0.0084743,0.0000000,0.0000000,0.0000000,0.0651202,0.0000000,0.0000000,0.0084743,0.0000000,0.0000000,0.0000000,0.0651202,0.0000000,0.0000000,0.0084743,0.0084743,0.0000000,0.0000000,0.0021990,0.0000000,0.0000000,0.0000000,0.0084743,0.0000000,0.0000000,0.0021990,0.0000000,0.0000000,0.0000000,0.0084743,0.0000000,0.0000000,0.0021990
72.3489800,1.0501500,,-0.9017239,-0.4323042,0.0004564,0.0026199,0.0005828,0.0001300,-0.0007708,,,,3.1692135,-6.6528897,-21.3253708,0.0000000,0.0000000,0.0000000,0.0210030,0.0654762,0.0000000,0.0000000,0.0085206,0.0000000,0.0000000,0.0000000,0.0654762,0.0000000,0.0000000,0.0085206,0.0000000,0.0000000,0.0000000,0.0654762,0.0000000,0.0000000,0.0085206,0.0085206,0.0000000,0.0000000,0.0022050,0.0000000,0.0000000,0.0000000,0.0085206,0.0000000,0.0000000,0.0022050,0.0000000,0.0000000,0.0000000,0.0085206,0.0000000,0.0000000,0.0022050
72.3689600,1.0000000,,-0.9017240,-0.4323042,0.0004628,0.0025949,-0.0111374,-0.0008276,0.0015677,,,,3.1692135,-6.6528897,-21.3253708,0.0000000,0.0000000,0.0000000,0.0200000,0.0658170,0.0000000,0.0000000,0.0085647,0.0000000,0.0000000,0.0000000,0.0658170,0.0000000,0.0000000,0.0085647,0.0000000,0.0000000,0.0000000,0.0658170,0.0000000,0.0000000,0.0085647,0.0085647,0.0000000,0.0000000,0.0022108,0.0000000,0.0000000,0.0000000,0.0085647,0.0000000,0.0000000,0.0022108,0.0000000,0.0000000,0.0000000,0.0085647,0.0000000,0.0000000,0.0022108
72.3891460,,1.0000000,-0.9017240,-0.4323041,0.0004858,0.0025864,,,,0.0000000,0.0000000,0.0000000,3.1692135,-6.6528897,-21.3253708,0.0000000,0.0000000,0.0000000,0.1000000,0.0641201,0.0000000,0.0000000,0.0083439,0.0000000,0.0000000,0.0000000,0.0641201,0.0000000,0.0000000,0.0083439,0.0000000,0.0000000,0.0000000,0.0641201,0.0000000,0.0000000,0.0083439,0.0083439,0.0000000,0.0000000,0.0021820,0.0000000,0.0000000,0.0000000,0.0083439,0.0000000,0.0000000,0.0021820,0.0000000,0.0000000,0.0000000,0.0083439,0.0000000,0.0000000,0.0021820
72.4038780,1.0003500,,-0.9017240,-0.4323041,0.0004858,0.0025864,-0.0074379,-0.0044574,0.0037136,,,,3.1692135,-6.6528897,-21.3253708,0.0000000,0.0000000,0.0000000,0.0200070,0.0644539,0.0000000,0.0000000,0.0083876,0.0000000,0.0000000,0.0000000,0.0644539,0.0000000,0.0000000,0.0083876,0.0000000,0.0000000,0.0000000,0.0644539,0.0000000,0.0000000,0.0083876,0.0083876,0.0000000,0.0000000,0.0021878,0.0000000,0.0000000,0.0000000,0.0083876,0.0000000,0.0000000,0.0021878,0.0000000,0.0000000,0.0000000,0.0083876,0.0000000,0.0000000,0.0021878
72.4167560,1.3995000,,-0.9017240,-0.4323041,0.0004841,0.0025637,-0.0036427,-0.0036325,0.0040540,,,,3.1692135,-6.6528897,-21.3253708,0.0000000,0.0000000,0.0000000,0.0279900,0.0649235,0.0000000,0.0000000,0.0084489,0.0000000,0.0000000,0.0000000,0.0649235,0.0000000,0.0000000,0.0084489,0.0000000,0.0000000,0.0000000,0.0649235,0.0000000,0.0000000,0.0084489,0.0084489,0.0000000,0.0000000,0.0021958,0.0000000,0.0000000,0.0000000,0.0084489,0.0000000,0.0000000,0.0021958,0.0000000,0.0000000,0.0000000,0.0084489,0.0000000,0.0000000,0.0021958
72.4369420,1.0001000,,-0.9017240,-0.4323042,0.0004662,0.0025729,-0.0010660,-0.0041737,0.0010505,,,,3.1692135,-6.6528897,-21.3253708,0.0000000,0.0000000,0.0000000,0.0200020,0.0652615,0.0000000,0.0000000,0.0084929,0.0000000,0.0000000,0.0000000,0.0652615,0.0000000,0.0000000,0.0084929,0.0000000,0.0000000,0.0000000,0.0652615,0.0000000,0.0000000,0.0084929,0.0084929,0.0000000,0.0000000,0.0022015,0.0000000,0.0000000,0.0000000,0.0084929,0.0000000,0.0000000,0.0022015,0.0000000,0.0000000,0.0000000,0.0084929,0.0000000,0.0000000,0.0022015
72.4569260,1.0004500,,-0.9017240,-0.4323043,0.0004534,0.0025590,-0.0031880,0.0028417,-0.0046017,,,,3.1692135,-6.6528897,-21.3253708,0.0000000,0.0000000,0.0000000,0.0200090,0.0656013,0.0000000,0.0000000,0.0085370,0.0000000,0.0000000,0.0000000,0.0656013,0.0000000,0.0000000,0.0085370,0.0000000,0.0000000,0.0000000,0.0656013,0.0000000,0.0000000,0.0085370,0.0085370,0.0000000,0.0000000,0.0022072,0.0000000,0.0000000,0.0000000,0.0085370,0.0000000,0.0000000,0.0022072,0.0000000,0.0000000,0.0000000,0.0085370,0.0000000,0.0000000,0.0022072
72.4769510,0.9998000,,-0.9017240,-0.4323043,0.0004342,0.0025620,0.0010915,-0.0019437,-0.0035216,,,,3.1692135,-6.6528897,-21.3253708,0.0000000,0.0000000,0.0000000,0.0199960,0.0659427,0.0000000,0.0000000,0.0085812,0.0000000,0.0000000,0.0000000,0.0659427,0.0000000,0.0000000,0.0085812,0.0000000,0.0000000,0.0000000,0.0659427,0.0000000,0.0000000,0.0085812,0.0085812,0.0000000,0.0000000,0.0022129,0.0000000,0.0000000,0.0000000,0.0085812,0.0000000,0.0000000,0.0022129,0.0000000,0.0000000,0.0000000,0.0085812,0.0000000,0.0000000,0.0022129
72.4927800,,1.0001000,-0.9017240,-0.4323043,0.0004342,0.0025620,,,,0.0000000,0.0000000,0.0000000,3.1692135,-6.6528897,-21.3253708,0.0000000,0.0000000,0.0000000,0.1000100,0.0642394,0.0000000,0.0000000,0.0083595,0.0000000,0.0000000,0.0000000,0.0642394,0.0000000,0.0000000,0.0083595,0.0000000,0.0000000,0.0000000,0.0642394,0.0000000,0.0000000,0.0083595,0.0083595,0.0000000,0.0000000,0.0021841,0.0000000,0.0000000,0.0000000,0.0083595,0.0000000,0.0000000,0.0021841,0.0000000,0.0000000,0.0000000,0.0083595,0.0000000,0.0000000,0.0021841
72.5051660,1.0002501,,-0.9017240,-0.4323043,0.0004295,0.0025553,0.0000727,0.0017595,-0.0039580,,,,3.1692135,-6.6528897,-21.3253708,0.0000000,0.0000000,0.0000000,0.0200050,0.0645739,0.0000000,0.0000000,0.0084033,0.0000000,0.0000000,0.0000000,0.0645739,0.0000000,0.0000000,0.0084033,0.0000000,0.0000000,0.0000000,0.0645739,0.0000000,0.0000000,0.0084033,0.0084033,0.0000000,0.0000000,0.0021898,0.0000000,0.0000000,0.0000000,0.0084033,0.0000000,0.0000000,0.0021898,0.0000000,0.0000000,0.0000000,0.0084033,0.0000000,0.0000000,0.0021898
72.5197810,1.1495000,,-0.9017241,-0.4323043,0.0004323,0.0025426,0.0032483,-0.0000663,0.0004624,,,,3.1692135,-6.6528897,-21.3253708,0.0000000,0.0000000,0.0000000,0.0229900,0.0649603,0.0000000,0.0000000,0.0084537,0.0000000,0.0000000,0.0000000,0.0649603,0.0000000,0.0000000,0.0084537,0.0000000,0.0000000,0.0000000,0.0649603,0.0000000,0.0000000,0.0084537,0.0084537,0.0000000,0.0000000,0.0021964,0.0000000,0.0000000,0.0000000,0.0084537,0.0000000,0.0000000,0.0021964,0.0000000,0.0000000,0.0000000,0.0084537,0.0000000,0.0000000,0.0021964
72.5411410,1.0500000,,-0.9017241,-0.4323043,0.0004383,0.0025420,0.0019065,-0.0046261,0.0043816,,,,3.1692135,-6.6528897,-21.3253708,0.0000000,0.0000000,0.0000000,0.0210000,0.0653153,0.0000000,0.0000000,0.0084999,0.0000000,0.0000000,0.0000000,0.0653153,0.0000000,0.0000000,0.0084999,0.0000000,0.0000000,0.0000000,0.0653153,0.0000000,0.0000000,0.0084999,0.0084999,0.0000000,0.0000000,0.0022024,0.0000000,0.0000000,0.0000000,0.0084999,0.0000000,0.0000000,0.0022024,0.0000000,0.0000000,0.0000000,0.0084999,0.0000000,0.0000000,0.0022024
72.5608680,1.0002999,,-0.9017242,-0.4323044,0.0004331,0.0025176,0.0014873,0.0018297,0.0024349,,,,3.1692135,-6.6528897,-21.3253708,0.0000000,0.0000000,0.0000000,0.0200060,0.0656554,0.0000000,0.0000000,0.0085440,0.0000000,0.0000000,0.0000000,0.0656554,0.0000000,0.0000000,0.0085440,0.0000000,0.0000000,0.0000000,0.0656554,0.0000000,0.0000000,0.0085440,0.0085440,0.0000000,0.0000000,0.0022081,0.0000000,0.0000000,0.0000000,0.0085440,0.0000000,0.0000000,0.0022081,0.0000000,0.0000000,0.0000000,0.0085440,0.0000000,0.0000000,0.0022081
72.5817860,1.0497000,,-0.9017242,-0.4323044,0.0004340,0.0025022,-0.0065272,-0.0000693,0.0002409,,,,3.1692135,-6.6528897,-21.3253708,0.0000000,0.0000000,0.0000000,0.0209940,0.0660142,0.0000000,0.0000000,0.0085904,0.0000000,0.0000000,0.0000000,0.0660142,0.0000000,0.0000000,0.0085904,0.0000000,0.0000000,0.0000000,0.0660142,0.0000000,0.0000000,0.0085904,0.0085904,0.0000000,0.0000000,0.0022141,0.0000000,0.0000000,0.0000000,0.0085904,0.0000000,0.0000000,0.0022141,0.0000000,0.0000000,0.0000000,0.0085904,0.0000000,0.0000000,0.0022141
72.5993210,,0.9999200,-0.9017242,-0.4323044,0.0004340,0.0025022,,,,0.0000000,0.0000000,0.0000000,3.1692135,-6.6528897,-21.3253708,0.0000000,0.0000000,0.0000000,0.0999920,0.0643072,0.0000000,0.0000000,0.0083683,0.0000000,0.0000000,0.0000000,0.0643072,0.0000000,0.0000000,0.0083683,0.0000000,0.0000000,0.0000000,0.0643072,0.0000000,0.0000000,0.0083683,0.0083683,0.0000000,0.0000000,0.0021852,0.0000000,0.0000000,0.0000000,0.0083683,0.0000000,0.0000000,0.0021852,0.0000000,0.0000000,0.0000000,0.0083683,0.0000000,0.0000000,0.0021852
72.6126360,1.1001000,,-0.9017242,-0.4323043,0.0004541,0.0024991,-0.0090390,-0.0017284,0.0010970,,,,3.1692135,-6.6528897,-21.3253708,0.0000000,0.0000000,0.0000000,0.0220020,0.0646754,0.0000000,0.0000000,0.0084164,0.0000000,0.0000000,0.0000000,0.0646754,0.0000000,0.0000000,0.0084164,0.0000000,0.0000000,0.0000000,0.0646754,0.0000000,0.0000000,0.0084164,0.0084164,0.0000000,0.0000000,0.0021915,0.0000000,0.0000000,0.0000000,0.0084164,0.0000000,0.0000000,0.0021915,0.0000000,0.0000000,0.0000000,0.0084164,0.0000000,0.0000000,0.0021915
72.6259300,1.0998001,,-0.9017242,-0.4323043,0.0004587,0.0025070,-0.0029860,0.0011194,-0.0004281,,,,3.1692135,-6.6528897,-21.3253708,0.0000000,0.0000000,0.0000000,0.0219960,0.0650457,0.0000000,0.0000000,0.0084647,0.0000000,0.0000000,0.0000000,0.0650457,0.0000000,0.0000000,0.0084647,0.0000000,0.0000000,0.0000000,0.0650457,0.0000000,0.0000000,0.0084647,0.0084647,0.0000000,0.0000000,0.0021978,0.0000000,0.0000000,0.0000000,0.0084647,0.0000000,0.0000000,0.0021978,0.0000000,0.0000000,0.0000000,0.0084647,0.0000000,0.0000000,0.0021978
72.6469430,1.0501001,,-0.9017242,-0.4323043,0.0004646,0.0025010,-0.0040946,0.0057019,0.0046688,,,,3.1692135,-6.6528897,-21.3253708,0.0000000,0.0000000,0.0000000,0.0210020,0.0654012,0.0000000,0.0000000,0.0085109,0.0000000,0.0000000,0.0000000,0.0654012,0.0000000,0.0000000,0.0085109,0.0000000,0.0000000,0.0000000,0.0654012,0.0000000,0.0000000,0.0085109,0.0085109,0.0000000,0.0000000,0.0022038,0.0000000,0.0000000,0.0000000,0.0085109,0.0000000,0.0000000,0.0022038,0.0000000,0.0000000,0.0000000,0.0085109,0.0000000,0.0000000,0.0022038
72.6669360,1.0004500,,-0.9017242,-0.4323043,0.0004571,0.0025027,0.0050938,0.0018897,0.0035551,,,,3.1692135,-6.6528897,-21.3253708,0.0000000,0.0000000,0.0000000,0.0200090,0.0657418,0.0000000,0.0000000,0.0085551,0.0000000,0.0000000,0.0000000,0.0657418,0.0000000,0.0000000,0.0085551,0.0000000,0.0000000,0.0000000,0.0657418,0.0000000,0.0000000,0.0085551,0.0085551,0.0000000,0.0000000,0.0022095,0.0000000,0.0000000,0.0000000,0.0085551,0.0000000,0.0000000,0.0022095,0.0000000,0.0000000,0.0000000,0.0085551,0.0000000,0.0000000,0.0022095
72.6888280,,0.9999800,-0.9017242,-0.4323044,0.0004287,0.0025012,,,,0.0000000,0.0000000,0.0000000,3.1692135,-6.6528897,-21.3253708,0.0000000,0.0000000,0.0000000,0.0999980,0.0640487,0.0000000,0.0000000,0.0083347,0.0000000,0.0000000,0.0000000,0.0640487,0.0000000,0.0000000,0.0083347,0.0000000,0.0000000,0.0000000,0.0640487,0.0000000,0.0000000,0.0083347,0.0083347,0.0000000,0.0000000,0.0021809,0.0000000,0.0000000,0.0000000,0.0083347,0.0000000,0.0000000,0.0021809,0.0000000,0.0000000,0.0000000,0.0083347,0.0000000,0.0000000,0.0021809
72.7024920,1.0496501,,-0.9017242,-0.4323044,0.0004287,0.0025012,0.0059801,0.0006931,0.0066604,,,,3.1692135,-6.6528897,-21.3253708,0.0000000,0.0000000,0.0000000,0.0209930,0.0643986,0.0000000,0.0000000,0.0083806,0.0000000,0.0000000,0.0000000,0.0643986,0.0000000,0.0000000,0.0083806,0.0000000,0.0000000,0.0000000,0.0643986,0.0000000,0.0000000,0.0083806,0.0083806,0.0000000,0.0000000,0.0021869,0.0000000,0.0000000,0.0000000,0.0083806,0.0000000,0.0000000,0.0021869,0.0000000,0.0000000,0.0000000,0.0083806,0.0000000,0.0000000,0.0021869
72.7158640,1.4003501,,-0.9017242,-0.4323044,0.0004043,0.0024902,0.0029977,-0.0001799,0.0021095,,,,3.1692135,-6.6528897,-21.3253708,0.0000000,0.0000000,0.0000000,0.0280070,0.0648681,0.0000000,0.0000000,0.0084419,0.0000000,0.0000000,0.0000000,0.0648681,0.0000000,0.0000000,0.0084419,0.0000000,0.0000000,0.0000000,0.0648681,0.0000000,0.0000000,0.0084419,0.0084419,0.0000000,0.0000000,0.0021949,0.0000000,0.0000000,0.0000000,0.0084419,0.0000000,0.0000000,0.0021949,0.0000000,0.0000000,0.0000000,0.0084419,0.0000000,0.0000000,0.0021949
72.7358660,0.9997500,,-0.9017242,-0.4323045,0.0003924,0.0024821,0.0002858,-0.0006240,0.0027637,,,,3.1692135,-6.6528897,-21.3253708,0.0000000,0.0000000,0.0000000,0.0199950,0.0652057,0.0000000,0.0000000,0.0084859,0.0000000,0.0000000,0.0000000,0.0652057,0.0000000,0.0000000,0.0084859,0.0000000,0.0000000,0.0000000,0.0652057,0.0000000,0.0000000,0.0084859,0.0084859,0.0000000,0.0000000,0.0022006,0.0000000,0.0000000,0.0000000,0.0084859,0.0000000,0.0000000,0.0022006,0.0000000,0.0000000,0.0000000,0.0084859,0.0000000,0.0000000,0.0022006
72.7557280,1.0002999,,-0.9017242,-0.4323045,0.0003824,0.0024646,0.0016230,-0.0011131,-0.0032568,,,,3.1692135,-6.6528897,-21.3253708,0.0000000,0.0000000,0.0000000,0.0200060,0.0655452,0.0000000,0.0000000,0.0085299,0.0000000,0.0000000,0.0000000,0.0655452,0.0000000,0.0000000,0.0085299,0.0000000,0.0000000,0.0000000,0.0655452,0.0000000,0.0000000,0.0085299,0.0085299,0.0000000,0.0000000,0.0022063,0.0000000,0.0000000,0.0000000,0.0085299,0.0000000,0.0000000,0.0022063,0.0000000,0.0000000,0.0000000,0.0085299,0.0000000,0.0000000,0.0022063
72.7756300,0.9994500,,-0.9017243,-0.4323046,0.0003780,0.0024255,0.0023145,0.0017628,0.0037427,,,,3.1692135,-6.6528897,-21.3253708,0.0000000,0.0000000,0.0000000,0.0199890,0.0658862,0.0000000,0.0000000,0.0085741,0.0000000,0.0000000,0.0000000,0.0658862,0.0000000,0.0000000,0.0085741,0.0000000,0.0000000,0.0000000,0.0658862,0.0000000,0.0000000,0.0085741,0.0085741,0.0000000,0.0000000,0.0022121,0.0000000,0.0000000,0.0000000,0.0085741,0.0000000,0.0000000,0.0022121,0.0000000,0.0000000,0.0000000,0.0085741,0.0000000,0.0000000,0.0022121
72.7916600,,1.0155900,-0.9017243,-0.4323046,0.0003780,0.0024255,,,,0.0000000,0.0000000,0.0000000,3.1692135,-6.6528897,-21.3253708,0.0000000,0.0000000,0.0000000,0.1015590,0.0641857,0.0000000,0.0000000,0.0083528,0.0000000,0.0000000,0.0000000,0.0641857,0.0000000,0.0000000,0.0083528,0.0000000,0.0000000,0.0000000,0.0641857,0.0000000,0.0000000,0.0083528,0.0083528,0.0000000,0.0000000,0.0021833,0.0000000,0.0000000,0.0000000,0.0083528,0.0000000,0.0000000,0.0021833,0.0000000,0.0000000,0.0000000,0.0083528,0.0000000,0.0000000,0.0021833
72.8041230,1.1000500,,-0.9017244,-0.4323046,0.0003671,0.0023866,0.0012030,0.0075495,-0.0017908,,,,3.1692135,-6.6528897,-21.3253708,0.0000000,0.0000000,0.0000000,0.0220010,0.0645533,0.0000000,0.0000000,0.0084009,0.0000000,0.0000000,0.0000000,0.0645533,0.0000000,0.0000000,0.0084009,0.0000000,0.0000000,0.0000000,0.0645533,0.0000000,0.0000000,0.0084009,0.0084009,0.0000000,0.0000000,0.0021896,0.0000000,0.0000000,0.0000000,0.0084009,0.0000000,0.0000000,0.0021896,0.0000000,0.0000000,0.0000000,0.0084009,0.0000000,0.0000000,0.0021896
72.8189360,1.0502001,,-0.9017244,-0.4323047,0.0003541,0.0023778,0.0042865,0.0004483,0.0003253,,,,3.1692135,-6.6528897,-21.3253708,0.0000000,0.0000000,0.0000000,0.0210040,0.0649062,0.0000000,0.0000000,0.0084470,0.0000000,0.0000000,0.0000000,0.0649062,0.0000000,0.0000000,0.0084470,0.0000000,0.0000000,0.0000000,0.0649062,0.0000000,0.0000000,0.0084470,0.0084470,0.0000000,0.0000000,0.0021956,0.0000000,0.0000000,0.0000000,0.0084470,0.0000000,0.0000000,0.0021956,0.0000000,0.0000000,0.0000000,0.0084470,0.0000000,0.0000000,0.0021956
72.8389360,1.0002999,,-0.9017243,-0.4323046,0.0003569,0.0023920,0.0031427,-0.0074586,0.0021158,,,,3.1692135,-6.6528897,-21.3253708,0.0000000,0.0000000,0.0000000,0.0200060,0.0652442,0.0000000,0.0000000,0.0084909,0.0000000,0.0000000,0.0000000,0.0652442,0.0000000,0.0000000,0.0084909,0.0000000,0.0000000,0.0000000,0.0652442,0.0000000,0.0000000,0.0084909,0.0084909,0.0000000,0.0000000,0.0022013,0.0000000,0.0000000,0.0000000,0.0084909,0.0000000,0.0000000,0.0022013,0.0000000,0.0000000,0.0000000,0.0084909,0.0000000,0.0000000,0.0022013
72.8587290,0.9996500,,-0.9017244,-0.4323046,0.0003603,0.0023779,-0.0027774,0.0024658,-0.0048015,,,,3.1692135,-6.6528897,-21.3253708,0.0000000,0.0000000,0.0000000,0.0199930,0.0655837,0.0000000,0.0000000,0.0085350,0.0000000,0.0000000,0.0000000,0.0655837,0.0000000,0.0000000,0.0085350,0.0000000,0.0000000,0.0000000,0.0655837,0.0000000,0.0000000,0.0085350,0.0085350,0.0000000,0.0000000,0.0022070,0.0000000,0.0000000,0.0000000,0.0085350,0.0000000,0.0000000,0.0022070,0.0000000,0.0000000,0.0000000,0.0085350,0.0000000,0.0000000,0.0022070
72.8786540,0.9999000,,-0.9017243,-0.4323046,0.0003561,0.0023903,0.0020445,0.0050171,-0.0055746,,,,3.1692135,-6.6528897,-21.3253708,0.0000000,0.0000000,0.0000000,0.0199980,0.0659251,0.0000000,0.0000000,0.0085792,0.0000000,0.0000000,0.0000000,0.0659251,0.0000000,0.0000000,0.0085792,0.0000000,0.0000000,0.0000000,0.0659251,0.0000000,0.0000000,0.0085792,0.0085792,0.0000000,0.0000000,0.0022127,0.0000000,0.0000000,0.0000000,0.0085792,0.0000000,0.0000000,0.0022127,0.0000000,0.0000000,0.0000000,0.0085792,0.0000000,0.0000000,0.0022127
72.8951970,,1.0244300,-0.9017243,-0.4323046,0.0003561,0.0023903,,,,0.0000000,0.0000000,0.0000000,3.1692135,-6.6528897,-21.3253708,0.0000000,0.0000000,0.0000000,0.1024430,0.0642226,0.0000000,0.0000000,0.0083577,0.0000000,0.0000000,0.0000000,0.0642226,0.0000000,0.0000000,0.0083577,0.0000000,0.0000000,0.0000000,0.0642226,0.0000000,0.0000000,0.0083577,0.0083577,0.0000000,0.0000000,0.0021839,0.0000000,0.0000000,0.0000000,0.0083577,0.0000000,0.0000000,0.0021839,0.0000000,0.0000000,0.0000000,0.0083577,0.0000000,0.0000000,0.0021839
72.9087230,1.1003500,,-0.9017243,-0.4323046,0.0003725,0.0023925,-0.0028306,0.0038666,-0.0066935,,,,3.1692135,-6.6528897,-21.3253708,0.0000000,0.0000000,0.0000000,0.0220070,0.0645905,0.0000000,0.0000000,0.0084058,0.0000000,0.0000000,0.0000000,0.0645905,0.0000000,0.0000000,0.0084058,0.0000000,0.0000000,0.0000000,0.0645905,0.0000000,0.0000000,0.0084058,0.0084058,0.0000000,0.0000000,0.0021902,0.0000000,0.0000000,0.0000000,0.0084058,0.0000000,0.0000000,0.0021902,0.0000000,0.0000000,0.0000000,0.0084058,0.0000000,0.0000000,0.0021902
72.9219600,1.0495499,,-0.9017244,-0.4323046,0.0003869,0.0023749,-0.0001183,0.0042374,-0.0040792,,,,3.1692135,-6.6528897,-21.3253708,0.0000000,0.0000000,0.0000000,0.0209910,0.0649434,0.0000000,0.0000000,0.0084518,0.0000000,0.0000000,0.0000000,0.0649434,0.0000000,0.0000000,0.0084518,0.0000000,0.0000000,0.0000000,0.0649434,0.0000000,0.0000000,0.0084518,0.0084518,0.0000000,0.0000000,0.0021962,0.0000000,0.0000000,0.0000000,0.0084518,0.0000000,0.0000000,0.0021962,0.0000000,0.0000000,0.0000000,0.0084518,0.0000000,0.0000000,0.0021962
72.9419480,1.0006001,,-0.9017245,-0.4323045,0.0004251,0.0023692,-0.0099392,0.0039650,-0.0059458,,,,3.1692135,-6.6528897,-21.3253708,0.0000000,0.0000000,0.0000000,0.0200120,0.0652816,0.0000000,0.0000000,0.0084958,0.0000000,0.0000000,0.0000000,0.0652816,0.0000000,0.0000000,0.0084958,0.0000000,0.0000000,0.0000000,0.0652816,0.0000000,0.0000000,0.0084958,0.0084958,0.0000000,0.0000000,0.0022019,0.0000000,0.0000000,0.0000000,0.0084958,0.0000000,0.0000000,0.0022019,0.0000000,0.0000000,0.0000000,0.0084958,0.0000000,0.0000000,0.0022019
72.9627260,1.0494500,,-0.9017245,-0.4323044,0.0004503,0.0023672,0.0064058,-0.0000698,-0.0034612,,,,3.1692135,-6.6528897,-21.3253708,0.0000000,0.0000000,0.0000000,0.0209890,0.0656383,0.0000000,0.0000000,0.0085421,0.0000000,0.0000000,0.0000000,0.0656383,0.0000000,0.0000000,0.0085421,0.0000000,0.0000000,0.0000000,0.0656383,0.0000000,0.0000000,0.0085421,0.0085421,0.0000000,0.0000000,0.0022079,0.0000000,0.0000000,0.0000000,0.0085421,0.0000000,0.0000000,0.0022079,0.0000000,0.0000000,0.0000000,0.0085421,0.0000000,0.0000000,0.0022079
72.9839870,1.0507500,,-0.9017245,-0.4323044,0.0004706,0.0023729,0.0021348,0.0020784,-0.0031954,,,,3.1692135,-6.6528897,-21.3253708,0.0000000,0.0000000,0.0000000,0.0210150,0.0659973,0.0000000,0.0000000,0.0085886,0.0000000,0.0000000,0.0000000,0.0659973,0.0000000,0.0000000,0.0085886,0.0000000,0.0000000,0.0000000,0.0659973,0.0000000,0.0000000,0.0085886,0.0085886,0.0000000,0.0000000,0.0022139,0.0000000,0.0000000,0.0000000,0.0085886,0.0000000,0.0000000,0.0022139,0.0000000,0.0000000,0.0000000,0.0085886,0.0000000,0.0000000,0.0022139
73.0001130,,1.0000000,-0.9017245,-0.4323044,0.0004706,0.0023729,,,,0.0000000,0.0000000,0.0000000,3.1692135,-6.6528897,-21.3253708,0.0000000,0.0000000,0.0000000,0.1000000,0.0642912,0.0000000,0.0000000,0.0083665,0.0000000,0.0000000,0.0000000,0.0642912,0.0000000,0.0000000,0.0083665,0.0000000,0.0000000,0.0000000,0.0642912,0.0000000,0.0000000,0.0083665,0.0083665,0.0000000,0.0000000,0.0021850,0.0000000,0.0000000,0.0000000,0.0083665,0.0000000,0.0000000,0.0021850,0.0000000,0.0000000,0.0000000,0.0083665,0.0000000,0.0000000,0.0021850
73.0139410,1.0998001,,-0.9017245,-0.4323044,0.0004485,0.0023849,0.0050576,0.0036332,0.0010878,,,,3.1692135,-6.6528897,-21.3253708,0.0000000,0.0000000,0.0000000,0.0219960,0.0646592,0.0000000,0.0000000,0.0084147,0.0000000,0.0000000,0.0000000,0.0646592,0.0000000,0.0000000,0.0084147,0.0000000,0.0000000,0.0000000,0.0646592,0.0000000,0.0000000,0.0084147,0.0084147,0.0000000,0.0000000,0.0021913,0.0000000,0.0000000,0.0000000,0.0084147,0.0000000,0.0000000,0.0021913,0.0000000,0.0000000,0.0000000,0.0084147,0.0000000,0.0000000,0.0021913
73.0266120,1.0494001,,-0.9017245,-0.4323045,0.0004261,0.0023872,0.0021092,0.0024422,-0.0058037,,,,3.1692135,-6.6528897,-21.3253708,0.0000000,0.0000000,0.0000000,0.0209880,0.0650125,0.0000000,0.0000000,0.0084607,0.0000000,0.0000000,0.0000000,0.0650125,0.0000000,0.0000000,0.0084607,0.0000000,0.0000000,0.0000000,0.0650125,0.0000000,0.0000000,0.0084607,0.0084607,0.0000000,0.0000000,0.0021973,0.0000000,0.0000000,0.0000000,0.0084607,0.0000000,0.0000000,0.0021973,0.0000000,0.0000000,0.0000000,0.0084607,0.0000000,0.0000000,0.0021973
73.0477260,1.0500500,,-0.9017245,-0.4323045,0.0004143,0.0023893,0.0011232,-0.0003505,-0.0063198,,,,3.1692135,-6.6528897,-21.3253708,0.0000000,0.0000000,0.0000000,0.0210010,0.0653678,0.0000000,0.0000000,0.0085069,0.0000000,0.0000000,0.0000000,0.0653678,0.0000000,0.0000000,0.0085069,0.0000000,0.0000000,0.0000000,0.0653678,0.0000000,0.0000000,0.0085069,0.0085069,0.0000000,0.0000000,0.0022034,0.0000000,0.0000000,0.0000000,0.0085069,0.0000000,0.0000000,0.0022034,0.0000000,0.0000000,0.0000000,0.0085069,0.0000000,0.0000000,0.0022034
73.0679050,1.0000000,,-0.9017245,-0.4323046,0.0003999,0.0023896,-0.0013381,-0.0017546,-0.0053572,,,,3.1692135,-6.6528897,-21.3253708,0.0000000,0.0000000,0.0000000,0.0200000,0.0657081,0.0000000,0.0000000,0.0085510,0.0000000,0.0000000,0.0000000,0.0657081,0.0000000,0.0000000,0.0085510,0.0000000,0.0000000,0.0000000,0.0657081,0.0000000,0.0000000,0.0085510,0.0085510,0.0000000,0.0000000,0.0022091,0.0000000,0.0000000,0.0000000,0.0085510,0.0000000,0.0000000,0.0022091,0.0000000,0.0000000,0.0000000,0.0085510,0.0000000,0.0000000,0.0022091
73.0891870,0.9999000,,-0.9017245,-0.4323047,0.0003704,0.0023704,0.0000939,0.0106736,-0.0043876,,,,3.1692135,-6.6528897,-21.3253708,0.0000000,0.0000000,0.0000000,0.0199980,0.0660501,0.0000000,0.0000000,0.0085953,0.0000000,0.0000000,0.0000000,0.0660501,0.0000000,0.0000000,0.0085953,0.0000000,0.0000000,0.0000000,0.0660501,0.0000000,0.0000000,0.0085953,0.0085953,0.0000000,0.0000000,0.0022148,0.0000000,0.0000000,0.0000000,0.0085953,0.0000000,0.0000000,0.0022148,0.0000000,0.0000000,0.0000000,0.0085953,0.0000000,0.0000000,0.0022148
73.1047780,,1.0000000,-0.9017245,-0.4323047,0.0003704,0.0023578,,,,0.0000000,0.0000000,0.0000000,3.1692135,-6.6528897,-21.3253708,0.0000000,0.0000000,0.0000000,0.1000000,0.0643413,0.0000000,0.0000000,0.0083729,0.0000000,0.0000000,0.0000000,0.0643413,0.0000000,0.0000000,0.0083729,0.0000000,0.0000000,0.0000000,0.0643413,0.0000000,0.0000000,0.0083729,0.0083729,0.0000000,0.0000000,0.0021859,0.0000000,0.0000000,0.0000000,0.0083729,0.0000000,0.0000000,0.0021859,0.0000000,0.0000000,0.0000000,0.0083729,0.0000000,0.0000000,0.0021859
73.1187410,1.0003500,,-0.9017245,-0.4323047,0.0003703,0.0023578,-0.0082004,0.0024910,-0.0058559,,,,3.1692135,-6.6528897,-21.3253708,0.0000000,0.0000000,0.0000000,0.0200070,0.0646763,0.0000000,0.0000000,0.0084167,0.0000000,0.0000000,0.0000000,0.0646763,0.0000000,0.0000000,0.0084167,0.0000000,0.0000000,0.0000000,0.0646763,0.0000000,0.0000000,0.0084167,0.0084167,0.0000000,0.0000000,0.0021916,0.0000000,0.0000000,0.0000000,0.0084167,0.0000000,0.0000000,0.0021916,0.0000000,0.0000000,0.0000000,0.0084167,0.0000000,0.0000000,0.0021916
73.1317280,1.2000500,,-0.9017245,-0.4323047,0.0003521,0.0023486,-0.0013918,-0.0008907,-0.0107404,,,,3.1692135,-6.6528897,-21.3253708,0.0000000,0.0000000,0.0000000,0.0240010,0.0650803,0.0000000,0.0000000,0.0084694,0.0000000,0.0000000,0.0000000,0.0650803,0.0000000,0.0000000,0.0084694,0.0000000,0.0000000,0.0000000,0.0650803,0.0000000,0.0000000,0.0084694,0.0084694,0.0000000,0.0000000,0.0021985,0.0000000,0.0000000,0.0000000,0.0084694,0.0000000,0.0000000,0.0021985,0.0000000,0.0000000,0.0000000,0.0084694,0.0000000,0.0000000,0.0021985
73.1516000,0.9998000,,-0.9017244,-0.4323048,0.0003263,0.0023694,0.0041640,-0.0030393,-0.0053702,,,,3.1692135,-6.6528897,-21.3253708,0.0000000,0.0000000,0.0000000,0.0199960,0.0654190,0.0000000,0.0000000,0.0085134,0.0000000,0.0000000,0.0000000,0.0654190,0.0000000,0.0000000,0.0085134,0.0000000,0.0000000,0.0000000,0.0654190,0.0000000,0.0000000,0.0085134,0.0085134,0.0000000,0.0000000,0.0022042,0.0000000,0.0000000,0.0000000,0.0085134,0.0000000,0.0000000,0.0022042,0.0000000,0.0000000,0.0000000,0.0085134,0.0000000,0.0000000,0.0022042
73.1728300,1.0498999,,-0.9017243,-0.4323048,0.0003107,0.0023794,0.0052253,-0.0038695,-0.0117183,,,,3.1692135,-6.6528897,-21.3253708,0.0000000,0.0000000,0.0000000,0.0209980,0.0657766,0.0000000,0.0000000,0.0085597,0.0000000,0.0000000,0.0000000,0.0657766,0.0000000,0.0000000,0.0085597,0.0000000,0.0000000,0.0000000,0.0657766,0.0000000,0.0000000,0.0085597,0.0085597,0.0000000,0.0000000,0.0022102,0.0000000,0.0000000,0.0000000,0.0085597,0.0000000,0.0000000,0.0022102,0.0000000,0.0000000,0.0000000,0.0085597,0.0000000,0.0000000,0.0022102
73.1940340,,1.0100700,-0.9017243,-0.4323048,0.0003163,0.0023827,,,,0.0000000,0.0000000,0.0000000,3.1692135,-6.6528897,-21.3253708,0.0000000,0.0000000,0.0000000,0.1010070,0.0640817,0.0000000,0.0000000,0.0083392,0.0000000,0.0000000,0.0000000,0.0640817,0.0000000,0.0000000,0.0083392,0.0000000,0.0000000,0.0000000,0.0640817,0.0000000,0.0000000,0.0083392,0.0083392,0.0000000,0.0000000,0.0021815,0.0000000,0.0000000,0.0000000,0.0083392,0.0000000,0.0000000,0.0021815,0.0000000,0.0000000,0.0000000,0.0083392,0.0000000,0.0000000,0.0021815
73.2076070,0.9999500,,-0.9017243,-0.4323048,0.0003163,0.0023827,0.0006519,-0.0003707,-0.0041502,,,,3.1692135,-6.6528897,-21.3253708,0.0000000,0.0000000,0.0000000,0.0199990,0.0644152,0.0000000,0.0000000,0.0083828,0.0000000,0.0000000,0.0000000,0.0644152,0.0000000,0.0000000,0.0083828,0.0000000,0.0000000,0.0000000,0.0644152,0.0000000,0.0000000,0.0083828,0.0083828,0.0000000,0.0000000,0.0021872,0.0000000,0.0000000,0.0000000,0.0083828,0.0000000,0.0000000,0.0021872,0.0000000,0.0000000,0.0000000,0.0083828,0.0000000,0.0000000,0.0021872
73.2209080,1.3999500,,-0.9017244,-0.4323048,0.0003187,0.0023653,0.0027750,0.0030495,-0.0020751,,,,3.1692135,-6.6528897,-21.3253708,0.0000000,0.0000000,0.0000000,0.0279990,0.0648847,0.0000000,0.0000000,0.0084442,0.0000000,0.0000000,0.0000000,0.0648847,0.0000000,0.0000000,0.0084442,0.0000000,0.0000000,0.0000000,0.0648847,0.0000000,0.0000000,0.0084442,0.0084442,0.0000000,0.0000000,0.0021952,0.0000000,0.0000000,0.0000000,0.0084442,0.0000000,0.0000000,0.0021952,0.0000000,0.0000000,0.0000000,0.0084442,0.0000000,0.0000000,0.0021952
73.2407050,1.0008500,,-0.9017243,-0.4323048,0.0003250,0.0023738,0.0062779,0.0028446,0.0001832,,,,3.1692135,-6.6528897,-21.3253708,0.0000000,0.0000000,0.0000000,0.0200170,0.0652227,0.0000000,0.0000000,0.0084882,0.0000000,0.0000000,0.0000000,0.0652227,0.0000000,0.0000000,0.0084882,0.0000000,0.0000000,0.0000000,0.0652227,0.0000000,0.0000000,0.0084882,0.0084882,0.0000000,0.0000000,0.0022009,0.0000000,0.0000000,0.0000000,0.0084882,0.0000000,0.0000000,0.0022009,0.0000000,0.0000000,0.0000000,0.0084882,0.0000000,0.0000000,0.0022009
73.2616470,1.0492500,,-0.9017243,-0.4323048,0.0003035,0.0023953,0.0072360,0.0034823,-0.0045471,,,,3.1692135,-6.6528897,-21.3253708,0.0000000,0.0000000,0.0000000,0.0209850,0.0655790,0.0000000,0.0000000,0.0085344,0.0000000,0.0000000,0.0000000,0.0655790,0.0000000,0.0000000,0.0085344,0.0000000,0.0000000,0.0000000,0.0655790,0.0000000,0.0000000,0.0085344,0.0085344,0.0000000,0.0000000,0.0022069,0.0000000,0.0000000,0.0000000,0.0085344,0.0000000,0.0000000,0.0022069,0.0000000,0.0000000,0.0000000,0.0085344,0.0000000,0.0000000,0.0022069
73.2827730,1.0499500,,-0.9017242,-0.4323048,0.0003007,0.0024180,0.0020997,0.0070054,-0.0047150,,,,3.1692135,-6.6528897,-21.3253708,0.0000000,0.0000000,0.0000000,0.0209990,0.0659374,0.0000000,0.0000000,0.0085808,0.0000000,0.0000000,0.0000000,0.0659374,0.0000000,0.0000000,0.0085808,0.0000000,0.0000000,0.0000000,0.0659374,0.0000000,0.0000000,0.0085808,0.0085808,0.0000000,0.0000000,0.0022130,0.0000000,0.0000000,0.0000000,0.0085808,0.0000000,0.0000000,0.0022130,0.0000000,0.0000000,0.0000000,0.0085808,0.0000000,0.0000000,0.0022130
73.2986310,,1.0199701,-0.9017242,-0.4323048,0.0003007,0.0024180,,,,0.0000000,0.0000000,0.0000000,3.1692135,-6.6528897,-21.3253708,0.0000000,0.0000000,0.0000000,0.1019970,0.0642343,0.0000000,0.0000000,0.0083592,0.0000000,0.0000000,0.0000000,0.0642343,0.0000000,0.0000000,0.0083592,0.0000000,0.0000000,0.0000000,0.0642343,0.0000000,0.0000000,0.0083592,0.0083592,0.0000000,0.0000000,0.0021841,0.0000000,0.0000000,0.0000000,0.0083592,0.0000000,0.0000000,0.0021841,0.0000000,0.0000000,0.0000000,0.0083592,0.0000000,0.0000000,0.0021841
73.3121850,1.1003000,,-0.9017242,-0.4323048,0.0002959,0.0024532,0.0053681,-0.0029136,-0.0060196,,,,3.1692135,-6.6528897,-21.3253708,0.0000000,0.0000000,0.0000000,0.0220060,0.0646022,0.0000000,0.0000000,0.0084073,0.0000000,0.0000000,0.0000000,0.0646022,0.0000000,0.0000000,0.0084073,0.0000000,0.0000000,0.0000000,0.0646022,0.0000000,0.0000000,0.0084073,0.0084073,0.0000000,0.0000000,0.0021904,0.0000000,0.0000000,0.0000000,0.0084073,0.0000000,0.0000000,0.0021904,0.0000000,0.0000000,0.0000000,0.0084073,0.0000000,0.0000000,0.0021904
73.3259120,1.0497000,,-0.9017241,-0.4323047,0.0003058,0.0024743,-0.0012832,-0.0017544,0.0008965,,,,3.1692135,-6.6528897,-21.3253708,0.0000000,0.0000000,0.0000000,0.0209940,0.0649552,0.0000000,0.0000000,0.0084534,0.0000000,0.0000000,0.0000000,0.0649552,0.0000000,0.0000000,0.0084534,0.0000000,0.0000000,0.0000000,0.0649552,0.0000000,0.0000000,0.0084534,0.0084534,0.0000000,0.0000000,0.0021964,0.0000000,0.0000000,0.0000000,0.0084534,0.0000000,0.0000000,0.0021964,0.0000000,0.0000000,0.0000000,0.0084534,0.0000000,0.0000000,0.0021964
73.3457010,1.0006500,,-0.9017241,-0.4323047,0.0003310,0.0024771,-0.0079811,0.0015185,0.0031338,,,,3.1692135,-6.6528897,-21.3253708,0.0000000,0.0000000,0.0000000,0.0200130,0.0652936,0.0000000,0.0000000,0.0084974,0.0000000,0.0000000,0.0000000,0.0652936,0.0000000,0.0000000,0.0084974,0.0000000,0.0000000,0.0000000,0.0652936,0.0000000,0.0000000,0.0084974,0.0084974,0.0000000,0.0000000,0.0022021,0.0000000,0.0000000,0.0000000,0.0084974,0.0000000,0.0000000,0.0022021,0.0000000,0.0000000,0.0000000,0.0084974,0.0000000,0.0000000,0.0022021
73.3666650,1.0493500,,-0.9017241,-0.4323046,0.0003585,0.0024804,-0.0071567,0.0007287,0.0005903,,,,3.1692135,-6.6528897,-21.3253708,0.0000000,0.0000000,0.0000000,0.0209870,0.0656502,0.0000000,0.0000000,0.0085436,0.0000000,0.0000000,0.0000000,0.0656502,0.0000000,0.0000000,0.0085436,0.0000000,0.0000000,0.0000000,0.0656502,0.0000000,0.0000000,0.0085436,0.0085436,0.0000000,0.0000000,0.0022081,0.0000000,0.0000000,0.0000000,0.0085436,0.0000000,0.0000000,0.0022081,0.0000000,0.0000000,0.0000000,0.0085436,0.0000000,0.0000000,0.0022081
73.3877870,1.0500000,,-0.9017241,-0.4323046,0.0003612,0.0024985,0.0015257,0.0020657,0.0017600,,,,3.1692135,-6.6528897,-21.3253708,0.0000000,0.0000000,0.0000000,0.0210000,0.0660091,0.0000000,0.0000000,0.0085901,0.0000000,0.0000000,0.0000000,0.0660091,0.0000000,0.0000000,0.0085901,0.0000000,0.0000000,0.0000000,0.0660091,0.0000000,0.0000000,0.0085901,0.0085901,0.0000000,0.0000000,0.0022142,0.0000000,0.0000000,0.0000000,0.0085901,0.0000000,0.0000000,0.0022142,0.0000000,0.0000000,0.0000000,0.0085901,0.0000000,0.0000000,0.0022142
73.4036730,,1.0199701,-0.9017241,-0.4323046,0.0003612,0.0024985,,,,0.0000000,0.0000000,0.0000000,3.1692135,-6.6528897,-21.3253708,0.0000000,0.0000000,0.0000000,0.1019970,0.0643024,0.0000000,0.0000000,0.0083680,0.0000000,0.0000000,0.0000000,0.0643024,0.0000000,0.0000000,0.0083680,0.0000000,0.0000000,0.0000000,0.0643024,0.0000000,0.0000000,0.0083680,0.0083680,0.0000000,0.0000000,0.0021852,0.0000000,0.0000000,0.0000000,0.0083680,0.0000000,0.0000000,0.0021852,0.0000000,0.0000000,0.0000000,0.0083680,0.0000000,0.0000000,0.0021852
73.4160280,1.1000500,,-0.9017240,-0.4323046,0.0003561,0.0025183,0.0075530,0.0024977,0.0042980,,,,3.1692135,-6.6528897,-21.3253708,0.0000000,0.0000000,0.0000000,0.0220010,0.0646706,0.0000000,0.0000000,0.0084161,0.0000000,0.0000000,0.0000000,0.0646706,0.0000000,0.0000000,0.0084161,0.0000000,0.0000000,0.0000000,0.0646706,0.0000000,0.0000000,0.0084161,0.0084161,0.0000000,0.0000000,0.0021915,0.0000000,0.0000000,0.0000000,0.0084161,0.0000000,0.0000000,0.0021915,0.0000000,0.0000000,0.0000000,0.0084161,0.0000000,0.0000000,0.0021915
73.4312230,0.9999500,,-0.9017240,-0.4323046,0.0003546,0.0025472,0.0032272,0.0029960,0.0048345,,,,3.1692135,-6.6528897,-21.3253708,0.0000000,0.0000000,0.0000000,0.0199990,0.0650072,0.0000000,0.0000000,0.0084600,0.0000000,0.0000000,0.0000000,0.0650072,0.0000000,0.0000000,0.0084600,0.0000000,0.0000000,0.0000000,0.0650072,0.0000000,0.0000000,0.0084600,0.0084600,0.0000000,0.0000000,0.0021973,0.0000000,0.0000000,0.0000000,0.0084600,0.0000000,0.0000000,0.0021973,0.0000000,0.0000000,0.0000000,0.0084600,0.0000000,0.0000000,0.0021973
73.4498010,1.0002999,,-0.9017240,-0.4323046,0.0003349,0.0025530,0.0025062,0.0112712,0.0080325,,,,3.1692135,-6.6528897,-21.3253708,0.0000000,0.0000000,0.0000000,0.0200060,0.0653457,0.0000000,0.0000000,0.0085040,0.0000000,0.0000000,0.0000000,0.0653457,0.0000000,0.0000000,0.0085040,0.0000000,0.0000000,0.0000000,0.0653457,0.0000000,0.0000000,0.0085040,0.0085040,0.0000000,0.0000000,0.0022030,0.0000000,0.0000000,0.0000000,0.0085040,0.0000000,0.0000000,0.0022030,0.0000000,0.0000000,0.0000000,0.0085040,0.0000000,0.0000000,0.0022030
73.4698570,0.9999000,,-0.9017240,-0.4323047,0.0003123,0.0025497,0.0009022,0.0100149,0.0081666,,,,3.1692135,-6.6528897,-21.3253708,0.0000000,0.0000000,0.0000000,0.0199980,0.0656858,0.0000000,0.0000000,0.0085481,0.0000000,0.0000000,0.0000000,0.0656858,0.0000000,0.0000000,0.0085481,0.0000000,0.0000000,0.0000000,0.0656858,0.0000000,0.0000000,0.0085481,0.0085481,0.0000000,0.0000000,0.0022087,0.0000000,0.0000000,0.0000000,0.0085481,0.0000000,0.0000000,0.0022087,0.0000000,0.0000000,0.0000000,0.0085481,0.0000000,0.0000000,0.0022087
73.4897580,1.0006001,,-0.9017239,-0.4323047,0.0002902,0.0025599,0.0027628,0.0071971,0.0043275,,,,3.1692135,-6.6528897,-21.3253708,0.0000000,0.0000000,0.0000000,0.0200120,0.0660279,0.0000000,0.0000000,0.0085924,0.0000000,0.0000000,0.0000000,0.0660279,0.0000000,0.0000000,0.0085924,0.0000000,0.0000000,0.0000000,0.0660279,0.0000000,0.0000000,0.0085924,0.0085924,0.0000000,0.0000000,0.0022144,0.0000000,0.0000000,0.0000000,0.0085924,0.0000000,0.0000000,0.0022144,0.0000000,0.0000000,0.0000000,0.0085924,0.0000000,0.0000000,0.0022144
73.5058970,,0.9999800,-0.9017239,-0.4323047,0.0002902,0.0025599,,,,0.0000000,0.0000000,0.0000000,3.1692135,-6.6528897,-21.3253708,0.0000000,0.0000000,0.0000000,0.0999980,0.0643203,0.0000000,0.0000000,0.0083702,0.0000000,0.0000000,0.0000000,0.0643203,0.0000000,0.0000000,0.0083702,0.0000000,0.0000000,0.0000000,0.0643203,0.0000000,0.0000000,0.0083702,0.0083702,0.0000000,0.0000000,0.0021855,0.0000000,0.0000000,0.0000000,0.0083702,0.0000000,0.0000000,0.0021855,0.0000000,0.0000000,0.0000000,0.0083702,0.0000000,0.0000000,0.0021855
73.5186810,1.0992000,,-0.9017239,-0.4323047,0.0002842,0.0025479,0.0000539,0.0018590,0.0028962,,,,3.1692135,-6.6528897,-21.3253708,0.0000000,0.0000000,0.0000000,0.0219840,0.0646883,0.0000000,0.0000000,0.0084183,0.0000000,0.0000000,0.0000000,0.0646883,0.0000000,0.0000000,0.0084183,0.0000000,0.0000000,0.0000000,0.0646883,0.0000000,0.0000000,0.0084183,0.0084183,0.0000000,0.0000000,0.0021918,0.0000000,0.0000000,0.0000000,0.0084183,0.0000000,0.0000000,0.0021918,0.0000000,0.0000000,0.0000000,0.0084183,0.0000000,0.0000000,0.0021918
73.5316330,0.9999500,,-0.9017239,-0.4323047,0.0002979,0.0025572,-0.0007970,-0.0024808,0.0004715,,,,3.1692135,-6.6528897,-21.3253708,0.0000000,0.0000000,0.0000000,0.0199990,0.0650250,0.0000000,0.0000000,0.0084622,0.0000000,0.0000000,0.0000000,0.0650250,0.0000000,0.0000000,0.0084622,0.0000000,0.0000000,0.0000000,0.0650250,0.0000000,0.0000000,0.0084622,0.0084622,0.0000000,0.0000000,0.0021975,0.0000000,0.0000000,0.0000000,0.0084622,0.0000000,0.0000000,0.0021975,0.0000000,0.0000000,0.0000000,0.0084622,0.0000000,0.0000000,0.0021975
73.5528820,1.0500000,,-0.9017239,-0.4323047,0.0002928,0.0025760,0.0055753,-0.0051238,-0.0039146,,,,3.1692135,-6.6528897,-21.3253708,0.0000000,0.0000000,0.0000000,0.0210000,0.0653804,0.0000000,0.0000000,0.0085084,0.0000000,0.0000000,0.0000000,0.0653804,0.0000000,0.0000000,0.0085084,0.0000000,0.0000000,0.0000000,0.0653804,0.0000000,0.0000000,0.0085084,0.0085084,0.0000000,0.0000000,0.0022035,0.0000000,0.0000000,0.0000000,0.0085084,0.0000000,0.0000000,0.0022035,0.0000000,0.0000000,0.0000000,0.0085084,0.0000000,0.0000000,0.0022035
73.5729460,1.0002501,,-0.9017237,-0.4323047,0.0002853,0.0026077,0.0038558,-0.0061630,-0.0105022,,,,3.1692135,-6.6528897,-21.3253708,0.0000000,0.0000000,0.0000000,0.0200050,0.0657208,0.0000000,0.0000000,0.0085525,0.0000000,0.0000000,0.0000000,0.0657208,0.0000000,0.0000000,0.0085525,0.0000000,0.0000000,0.0000000,0.0657208,0.0000000,0.0000000,0.0085525,0.0085525,0.0000000,0.0000000,0.0022093,0.0000000,0.0000000,0.0000000,0.0085525,0.0000000,0.0000000,0.0022093,0.0000000,0.0000000,0.0000000,0.0085525,0.0000000,0.0000000,0.0022093
73.5929110,1.0002000,,-0.9017237,-0.4323047,0.0002875,0.0026142,0.0056968,-0.0047371,-0.0072042,,,,3.1692135,-6.6528897,-21.3253708,0.0000000,0.0000000,0.0000000,0.0200040,0.0660630,0.0000000,0.0000000,0.0085968,0.0000000,0.0000000,0.0000000,0.0660630,0.0000000,0.0000000,0.0085968,0.0000000,0.0000000,0.0000000,0.0660630,0.0000000,0.0000000,0.0085968,0.0085968,0.0000000,0.0000000,0.0022150,0.0000000,0.0000000,0.0000000,0.0085968,0.0000000,0.0000000,0.0022150,0.0000000,0.0000000,0.0000000,0.0085968,0.0000000,0.0000000,0.0022150
73.6087810,,1.0000299,-0.9017237,-0.4323047,0.0002875,0.0026142,,,,0.0000000,0.0000000,0.0000000,3.1692135,-6.6528897,-21.3253708,0.0000000,0.0000000,0.0000000,0.1000030,0.0643535,0.0000000,0.0000000,0.0083743,0.0000000,0.0000000,0.0000000,0.0643535,0.0000000,0.0000000,0.0083743,0.0000000,0.0000000,0.0000000,0.0643535,0.0000000,0.0000000,0.0083743,0.0083743,0.0000000,0.0000000,0.0021860,0.0000000,0.0000000,0.0000000,0.0083743,0.0000000,0.0000000,0.0021860,0.0000000,0.0000000,0.0000000,0.0083743,0.0000000,0.0000000,0.0021860
73.6211250,1.0000000,,-0.9017237,-0.4323047,0.0002866,0.0026357,0.0070903,-0.0054584,-0.0089732,,,,3.1692135,-6.6528897,-21.3253708,0.0000000,0.0000000,0.0000000,0.0200000,0.0646885,0.0000000,0.0000000,0.0084181,0.0000000,0.0000000,0.0000000,0.0646885,0.0000000,0.0000000,0.0084181,0.0000000,0.0000000,0.0000000,0.0646885,0.0000000,0.0000000,0.0084181,0.0084181,0.0000000,0.0000000,0.0021918,0.0000000,0.0000000,0.0000000,0.0084181,0.0000000,0.0000000,0.0021918,0.0000000,0.0000000,0.0000000,0.0084181,0.0000000,0.0000000,0.0021918
73.6357700,1.1497501,,-0.9017236,-0.4323047,0.0002695,0.0026780,0.0074819,-0.0057810,-0.0025335,,,,3.1692135,-6.6528897,-21.3253708,0.0000000,0.0000000,0.0000000,0.0229950,0.0650756,0.0000000,0.0000000,0.0084685,0.0000000,0.0000000,0.0000000,0.0650756,0.0000000,0.0000000,0.0084685,0.0000000,0.0000000,0.0000000,0.0650756,0.0000000,0.0000000,0.0084685,0.0084685,0.0000000,0.0000000,0.0021983,0.0000000,0.0000000,0.0000000,0.0084685,0.0000000,0.0000000,0.0021983,0.0000000,0.0000000,0.0000000,0.0084685,0.0000000,0.0000000,0.0021983
73.6571300,1.0498999,,-0.9017235,-0.4323047,0.0002454,0.0026959,0.0044810,0.0001460,0.0019071,,,,3.1692135,-6.6528897,-21.3253708,0.0000000,0.0000000,0.0000000,0.0209980,0.0654313,0.0000000,0.0000000,0.0085148,0.0000000,0.0000000,0.0000000,0.0654313,0.0000000,0.0000000,0.0085148,0.0000000,0.0000000,0.0000000,0.0654313,0.0000000,0.0000000,0.0085148,0.0085148,0.0000000,0.0000000,0.0022043,0.0000000,0.0000000,0.0000000,0.0085148,0.0000000,0.0000000,0.0022043,0.0000000,0.0000000,0.0000000,0.0085148,0.0000000,0.0000000,0.0022043
73.6768830,1.0002999,,-0.9017234,-0.4323048,0.0002259,0.0027075,0.0063833,0.0035978,0.0082778,,,,3.1692135,-6.6528897,-21.3253708,0.0000000,0.0000000,0.0000000,0.0200060,0.0657720,0.0000000,0.0000000,0.0085589,0.0000000,0.0000000,0.0000000,0.0657720,0.0000000,0.0000000,0.0085589,0.0000000,0.0000000,0.0000000,0.0657720,0.0000000,0.0000000,0.0085589,0.0085589,0.0000000,0.0000000,0.0022101,0.0000000,0.0000000,0.0000000,0.0085589,0.0000000,0.0000000,0.0022101,0.0000000,0.0000000,0.0000000,0.0085589,0.0000000,0.0000000,0.0022101
73.6978990,,1.0000299,-0.9017234,-0.4323047,0.0002314,0.0027367,,,,0.0000000,0.0000000,0.0000000,3.1692135,-6.6528897,-21.3253708,0.0000000,0.0000000,0.0000000,0.1000030,0.0640773,0.0000000,0.0000000,0.0083384,0.0000000,0.0000000,0.0000000,0.0640773,0.0000000,0.0000000,0.0083384,0.0000000,0.0000000,0.0000000,0.0640773,0.0000000,0.0000000,0.0083384,0.0083384,0.0000000,0.0000000,0.0021814,0.0000000,0.0000000,0.0000000,0.0083384,0.0000000,0.0000000,0.0021814,0.0000000,0.0000000,0.0000000,0.0083384,0.0000000,0.0000000,0.0021814
73.7115410,0.9999500,,-0.9017234,-0.4323047,0.0002314,0.0027367,0.0053889,-0.0036561,-0.0009957,,,,3.1692135,-6.6528897,-21.3253708,0.0000000,0.0000000,0.0000000,0.0199990,0.0644108,0.0000000,0.0000000,0.0083821,0.0000000,0.0000000,0.0000000,0.0644108,0.0000000,0.0000000,0.0083821,0.0000000,0.0000000,0.0000000,0.0644108,0.0000000,0.0000000,0.0083821,0.0083821,0.0000000,0.0000000,0.0021871,0.0000000,0.0000000,0.0000000,0.0083821,0.0000000,0.0000000,0.0021871,0.0000000,0.0000000,0.0000000,0.0083821,0.0000000,0.0000000,0.0021871
73.7247300,1.4000001,,-0.9017233,-0.4323047,0.0002362,0.0027614,0.0043958,-0.0038499,0.0004711,,,,3.1692135,-6.6528897,-21.3253708,0.0000000,0.0000000,0.0000000,0.0280000,0.0648802,0.0000000,0.0000000,0.0084434,0.0000000,0.0000000,0.0000000,0.0648802,0.0000000,0.0000000,0.0084434,0.0000000,0.0000000,0.0000000,0.0648802,0.0000000,0.0000000,0.0084434,0.0084434,0.0000000,0.0000000,0.0021951,0.0000000,0.0000000,0.0000000,0.0084434,0.0000000,0.0000000,0.0021951,0.0000000,0.0000000,0.0000000,0.0084434,0.0000000,0.0000000,0.0021951
73.7445890,0.9998000,,-0.9017234,-0.4323047,0.0002332,0.0027498,0.0019614,-0.0003304,0.0046301,,,,3.1692135,-6.6528897,-21.3253708,0.0000000,0.0000000,0.0000000,0.0199960,0.0652179,0.0000000,0.0000000,0.0084874,0.0000000,0.0000000,0.0000000,0.0652179,0.0000000,0.0000000,0.0084874,0.0000000,0.0000000,0.0000000,0.0652179,0.0000000,0.0000000,0.0084874,0.0084873,0.0000000,0.0000000,0.0022008,0.0000000,0.0000000,0.0000000,0.0084873,0.0000000,0.0000000,0.0022008,0.0000000,0.0000000,0.0000000,0.0084873,0.0000000,0.0000000,0.0022008
73.7657600,1.0499500,,-0.9017234,-0.4323047,0.0002510,0.0027404,-0.0023915,-0.0029575,0.0062213,,,,3.1692135,-6.6528897,-21.3253708,0.0000000,0.0000000,0.0000000,0.0209990,0.0655743,0.0000000,0.0000000,0.0085336,0.0000000,0.0000000,0.0000000,0.0655743,0.0000000,0.0000000,0.0085336,0.0000000,0.0000000,0.0000000,0.0655743,0.0000000,0.0000000,0.0085336,0.0085336,0.0000000,0.0000000,0.0022068,0.0000000,0.0000000,0.0000000,0.0085336,0.0000000,0.0000000,0.0022068,0.0000000,0.0000000,0.0000000,0.0085336,0.0000000,0.0000000,0.0022068
73.7859300,1.0005500,,-0.9017234,-0.4323046,0.0002687,0.0027510,0.0066625,0.0055326,0.0031030,,,,3.1692135,-6.6528897,-21.3253708,0.0000000,0.0000000,0.0000000,0.0200110,0.0659159,0.0000000,0.0000000,0.0085778,0.0000000,0.0000000,0.0000000,0.0659159,0.0000000,0.0000000,0.0085778,0.0000000,0.0000000,0.0000000,0.0659159,0.0000000,0.0000000,0.0085778,0.0085778,0.0000000,0.0000000,0.0022126,0.0000000,0.0000000,0.0000000,0.0085778,0.0000000,0.0000000,0.0022126,0.0000000,0.0000000,0.0000000,0.0085778,0.0000000,0.0000000,0.0022126
73.8016450,,1.0199400,-0.9017234,-0.4323046,0.0002687,0.0027510,,,,0.0000000,0.0000000,0.0000000,3.1692135,-6.6528897,-21.3253708,0.0000000,0.0000000,0.0000000,0.1019940,0.0642139,0.0000000,0.0000000,0.0083564,0.0000000,0.0000000,0.0000000,0.0642139,0.0000000,0.0000000,0.0083564,0.0000000,0.0000000,0.0000000,0.0642139,0.0000000,0.0000000,0.0083564,0.0083564,0.0000000,0.0000000,0.0021837,0.0000000,0.0000000,0.0000000,0.0083564,0.0000000,0.0000000,0.0021837,0.0000000,0.0000000,0.0000000,0.0083564,0.0000000,0.0000000,0.0021837
73.8156050,0.9997000,,-0.9017233,-0.4323046,0.0002735,0.0027742,-0.0003080,0.0017516,0.0044736,,,,3.1692135,-6.6528897,-21.3253708,0.0000000,0.0000000,0.0000000,0.0199940,0.0645480,0.0000000,0.0000000,0.0084001,0.0000000,0.0000000,0.0000000,0.0645480,0.0000000,0.0000000,0.0084001,0.0000000,0.0000000,0.0000000,0.0645480,0.0000000,0.0000000,0.0084001,0.0084001,0.0000000,0.0000000,0.0021895,0.0000000,0.0000000,0.0000000,0.0084001,0.0000000,0.0000000,0.0021895,0.0000000,0.0000000,0.0000000,0.0084001,0.0000000,0.0000000,0.0021895
73.8287620,1.1496500,,-0.9017234,-0.4323045,0.0003032,0.0027738,-0.0066619,-0.0003830,-0.0007005,,,,3.1692135,-6.6528897,-21.3253708,0.0000000,0.0000000,0.0000000,0.0229930,0.0649343,0.0000000,0.0000000,0.0084505,0.0000000,0.0000000,0.0000000,0.0649343,0.0000000,0.0000000,0.0084505,0.0000000,0.0000000,0.0000000,0.0649343,0.0000000,0.0000000,0.0084505,0.0084505,0.0000000,0.0000000,0.0021960,0.0000000,0.0000000,0.0000000,0.0084505,0.0000000,0.0000000,0.0021960,0.0000000,0.0000000,0.0000000,0.0084505,0.0000000,0.0000000,0.0021960
73.8500220,1.0509000,,-0.9017235,-0.4323044,0.0003447,0.0027519,-0.0075805,0.0051262,-0.0013268,,,,3.1692135,-6.6528897,-21.3253708,0.0000000,0.0000000,0.0000000,0.0210180,0.0652896,0.0000000,0.0000000,0.0084967,0.0000000,0.0000000,0.0000000,0.0652896,0.0000000,0.0000000,0.0084967,0.0000000,0.0000000,0.0000000,0.0652896,0.0000000,0.0000000,0.0084967,0.0084967,0.0000000,0.0000000,0.0022020,0.0000000,0.0000000,0.0000000,0.0084967,0.0000000,0.0000000,0.0022020,0.0000000,0.0000000,0.0000000,0.0084967,0.0000000,0.0000000,0.0022020
73.8699040,0.9995000,,-0.9017235,-0.4323044,0.0003594,0.0027393,-0.0043853,-0.0006718,-0.0023724,,,,3.1692135,-6.6528897,-21.3253708,0.0000000,0.0000000,0.0000000,0.0199900,0.0656293,0.0000000,0.0000000,0.0085408,0.0000000,0.0000000,0.0000000,0.0656293,0.0000000,0.0000000,0.0085408,0.0000000,0.0000000,0.0000000,0.0656293,0.0000000,0.0000000,0.0085408,0.0085408,0.0000000,0.0000000,0.0022078,0.0000000,0.0000000,0.0000000,0.0085408,0.0000000,0.0000000,0.0022078,0.0000000,0.0000000,0.0000000,0.0085408,0.0000000,0.0000000,0.0022078
73.8908150,1.0497501,,-0.9017236,-0.4323044,0.0003678,0.0027071,-0.0027649,0.0041960,-0.0058249,,,,3.1692135,-6.6528897,-21.3253708,0.0000000,0.0000000,0.0000000,0.0209950,0.0659879,0.0000000,0.0000000,0.0085872,0.0000000,0.0000000,0.0000000,0.0659879,0.0000000,0.0000000,0.0085872,0.0000000,0.0000000,0.0000000,0.0659879,0.0000000,0.0000000,0.0085872,0.0085872,0.0000000,0.0000000,0.0022138,0.0000000,0.0000000,0.0000000,0.0085872,0.0000000,0.0000000,0.0022138,0.0000000,0.0000000,0.0000000,0.0085872,0.0000000,0.0000000,0.0022138
73.9065510,,1.0201299,-0.9017236,-0.4323044,0.0003678,0.0027071,,,,0.0000000,0.0000000,0.0000000,3.1692135,-6.6528897,-21.3253708,0.0000000,0.0000000,0.0000000,0.1020130,0.0642822,0.0000000,0.0000000,0.0083652,0.0000000,0.0000000,0.0000000,0.0642822,0.0000000,0.0000000,0.0083652,0.0000000,0.0000000,0.0000000,0.0642822,0.0000000,0.0000000,0.0083652,0.0083652,0.0000000,0.0000000,0.0021849,0.0000000,0.0000000,0.0000000,0.0083652,0.0000000,0.0000000,0.0021849,0.0000000,0.0000000,0.0000000,0.0083652,0.0000000,0.0000000,0.0021849
73.9205880,1.0001501,,-0.9017237,-0.4323044,0.0003784,0.0026728,-0.0021683,0.0017165,-0.0024242,,,,3.1692135,-6.6528897,-21.3253708,0.0000000,0.0000000,0.0000000,0.0200030,0.0646169,0.0000000,0.0000000,0.0084090,0.0000000,0.0000000,0.0000000,0.0646169,0.0000000,0.0000000,0.0084090,0.0000000,0.0000000,0.0000000,0.0646169,0.0000000,0.0000000,0.0084090,0.0084090,0.0000000,0.0000000,0.0021906,0.0000000,0.0000000,0.0000000,0.0084090,0.0000000,0.0000000,0.0021906,0.0000000,0.0000000,0.0000000,0.0084090,0.0000000,0.0000000,0.0021906
73.9337700,1.1497000,,-0.9017238,-0.4323043,0.0004259,0.0026469,-0.0083778,0.0029411,-0.0048742,,,,3.1692135,-6.6528897,-21.3253708,0.0000000,0.0000000,0.0000000,0.0229940,0.0650036,0.0000000,0.0000000,0.0084594,0.0000000,0.0000000,0.0000000,0.0650036,0.0000000,0.0000000,0.0084594,0.0000000,0.0000000,0.0000000,0.0650036,0.0000000,0.0000000,0.0084594,0.0084594,0.0000000,0.0000000,0.0021972,0.0000000,0.0000000,0.0000000,0.0084594,0.0000000,0.0000000,0.0021972,0.0000000,0.0000000,0.0000000,0.0084594,0.0000000,0.0000000,0.0021972
73.9551090,1.0508000,,-0.9017237,-0.4323042,0.0004574,0.0026633,-0.0066151,-0.0054188,-0.0014605,,,,3.1692135,-6.6528897,-21.3253708,0.0000000,0.0000000,0.0000000,0.0210160,0.0653592,0.0000000,0.0000000,0.0085057,0.0000000,0.0000000,0.0000000,0.0653592,0.0000000,0.0000000,0.0085057,0.0000000,0.0000000,0.0000000,0.0653592,0.0000000,0.0000000,0.0085057,0.0085057,0.0000000,0.0000000,0.0022032,0.0000000,0.0000000,0.0000000,0.0085057,0.0000000,0.0000000,0.0022032,0.0000000,0.0000000,0.0000000,0.0085057,0.0000000,0.0000000,0.0022032
73.9748600,0.9992500,,-0.9017238,-0.4323042,0.0004841,0.0026525,-0.0047190,0.0001440,0.0039084,,,,3.1692135,-6.6528897,-21.3253708,0.0000000,0.0000000,0.0000000,0.0199850,0.0656992,0.0000000,0.0000000,0.0085498,0.0000000,0.0000000,0.0000000,0.0656992,0.0000000,0.0000000,0.0085498,0.0000000,0.0000000,0.0000000,0.0656992,0.0000000,0.0000000,0.0085498,0.0085498,0.0000000,0.0000000,0.0022089,0.0000000,0.0000000,0.0000000,0.0085498,0.0000000,0.0000000,0.0022089,0.0000000,0.0000000,0.0000000,0.0085498,0.0000000,0.0000000,0.0022089
73.9959330,1.0501001,,-0.9017239,-0.4323041,0.0005093,0.0026356,-0.0059377,-0.0027051,0.0024425,,,,3.1692135,-6.6528897,-21.3253708,0.0000000,0.0000000,0.0000000,0.0210020,0.0660583,0.0000000,0.0000000,0.0085962,0.0000000,0.0000000,0.0000000,0.0660583,0.0000000,0.0000000,0.0085962,0.0000000,0.0000000,0.0000000,0.0660583,0.0000000,0.0000000,0.0085962,0.0085962,0.0000000,0.0000000,0.0022149,0.0000000,0.0000000,0.0000000,0.0085962,0.0000000,0.0000000,0.0022149,0.0000000,0.0000000,0.0000000,0.0085962,0.0000000,0.0000000,0.0022149
74.0116450,,0.9998700,-0.9017239,-0.4323041,0.0005093,0.0026356,,,,0.0000000,0.0000000,0.0000000,3.1692135,-6.6528897,-21.3253708,0.0000000,0.0000000,0.0000000,0.0999870,0.0643490,0.0000000,0.0000000,0.0083738,0.0000000,0.0000000,0.0000000,0.0643490,0.0000000,0.0000000,0.0083738,0.0000000,0.0000000,0.0000000,0.0643490,0.0000000,0.0000000,0.0083738,0.0083738,0.0000000,0.0000000,0.0021860,0.0000000,0.0000000,0.0000000,0.0083738,0.0000000,0.0000000,0.0021860,0.0000000,0.0000000,0.0000000,0.0083738,0.0000000,0.0000000,0.0021860
74.0256740,1.0001501,,-0.9017239,-0.4323041,0.0005132,0.0026129,-0.0028849,0.0002344,-0.0017084,,,,3.1692135,-6.6528897,-21.3253708,0.0000000,0.0000000,0.0000000,0.0200030,0.0646840,0.0000000,0.0000000,0.0084176,0.0000000,0.0000000,0.0000000,0.0646840,0.0000000,0.0000000,0.0084176,0.0000000,0.0000000,0.0000000,0.0646840,0.0000000,0.0000000,0.0084176,0.0084176,0.0000000,0.0000000,0.0021917,0.0000000,0.0000000,0.0000000,0.0084176,0.0000000,0.0000000,0.0021917,0.0000000,0.0000000,0.0000000,0.0084176,0.0000000,0.0000000,0.0021917
74.0387040,1.1497000,,-0.9017239,-0.4323041,0.0005227,0.0026360,-0.0006414,-0.0023776,0.0018313,,,,3.1692135,-6.6528897,-21.3253708,0.0000000,0.0000000,0.0000000,0.0229940,0.0650712,0.0000000,0.0000000,0.0084680,0.0000000,0.0000000,0.0000000,0.0650712,0.0000000,0.0000000,0.0084680,0.0000000,0.0000000,0.0000000,0.0650712,0.0000000,0.0000000,0.0084680,0.0084680,0.0000000,0.0000000,0.0021983,0.0000000,0.0000000,0.0000000,0.0084680,0.0000000,0.0000000,0.0021983,0.0000000,0.0000000,0.0000000,0.0084680,0.0000000,0.0000000,0.0021983
74.0599170,1.0508500,,-0.9017238,-0.4323041,0.0005149,0.0026544,0.0014264,0.0038847,-0.0022582,,,,3.1692135,-6.6528897,-21.3253708,0.0000000,0.0000000,0.0000000,0.0210170,0.0654271,0.0000000,0.0000000,0.0085143,0.0000000,0.0000000,0.0000000,0.0654271,0.0000000,0.0000000,0.0085143,0.0000000,0.0000000,0.0000000,0.0654271,0.0000000,0.0000000,0.0085143,0.0085143,0.0000000,0.0000000,0.0022043,0.0000000,0.0000000,0.0000000,0.0085143,0.0000000,0.0000000,0.0022043,0.0000000,0.0000000,0.0000000,0.0085143,0.0000000,0.0000000,0.0022043
74.0799420,0.9995000,,-0.9017237,-0.4323041,0.0005266,0.0026683,0.0046805,-0.0007737,-0.0035705,,,,3.1692135,-6.6528897,-21.3253708,0.0000000,0.0000000,0.0000000,0.0199900,0.0657675,0.0000000,0.0000000,0.0085584,0.0000000,0.0000000,0.0000000,0.0657675,0.0000000,0.0000000,0.0085584,0.0000000,0.0000000,0.0000000,0.0657675,0.0000000,0.0000000,0.0085584,0.0085584,0.0000000,0.0000000,0.0022100,0.0000000,0.0000000,0.0000000,0.0085584,0.0000000,0.0000000,0.0022100,0.0000000,0.0000000,0.0000000,0.0085584,0.0000000,0.0000000,0.0022100
74.1018500,,1.0000401,-0.9017237,-0.4323040,0.0005360,0.0026892,,,,0.0000000,0.0000000,0.0000000,3.1692135,-6.6528897,-21.3253708,0.0000000,0.0000000,0.0000000,0.1000040,0.0640731,0.0000000,0.0000000,0.0083379,0.0000000,0.0000000,0.0000000,0.0640731,0.0000000,0.0000000,0.0083379,0.0000000,0.0000000,0.0000000,0.0640731,0.0000000,0.0000000,0.0083379,0.0083379,0.0000000,0.0000000,0.0021813,0.0000000,0.0000000,0.0000000,0.0083379,0.0000000,0.0000000,0.0021813,0.0000000,0.0000000,0.0000000,0.0083379,0.0000000,0.0000000,0.0021813
74.1149640,1.0496501,,-0.9017237,-0.4323040,0.0005360,0.0026892,-0.0024892,-0.0016076,-0.0008163,,,,3.1692135,-6.6528897,-21.3253708,0.0000000,0.0000000,0.0000000,0.0209930,0.0644232,0.0000000,0.0000000,0.0083838,0.0000000,0.0000000,0.0000000,0.0644232,0.0000000,0.0000000,0.0083838,0.0000000,0.0000000,0.0000000,0.0644232,0.0000000,0.0000000,0.0083838,0.0083838,0.0000000,0.0000000,0.0021873,0.0000000,0.0000000,0.0000000,0.0083838,0.0000000,0.0000000,0.0021873,0.0000000,0.0000000,0.0000000,0.0083838,0.0000000,0.0000000,0.0021873
74.1279340,1.3500000,,-0.9017237,-0.4323040,0.0005443,0.0027041,-0.0033808,-0.0044583,-0.0050545,,,,3.1692135,-6.6528897,-21.3253708,0.0000000,0.0000000,0.0000000,0.0270000,0.0648759,0.0000000,0.0000000,0.0084429,0.0000000,0.0000000,0.0000000,0.0648759,0.0000000,0.0000000,0.0084429,0.0000000,0.0000000,0.0000000,0.0648759,0.0000000,0.0000000,0.0084429,0.0084429,0.0000000,0.0000000,0.0021951,0.0000000,0.0000000,0.0000000,0.0084429,0.0000000,0.0000000,0.0021951,0.0000000,0.0000000,0.0000000,0.0084429,0.0000000,0.0000000,0.0021951
74.1478060,1.0003500,,-0.9017237,-0.4323040,0.0005569,0.0027238,0.0003238,-0.0004820,-0.0037556,,,,3.1692135,-6.6528897,-21.3253708,0.0000000,0.0000000,0.0000000,0.0200070,0.0652137,0.0000000,0.0000000,0.0084869,0.0000000,0.0000000,0.0000000,0.0652137,0.0000000,0.0000000,0.0084869,0.0000000,0.0000000,0.0000000,0.0652137,0.0000000,0.0000000,0.0084869,0.0084869,0.0000000,0.0000000,0.0022008,0.0000000,0.0000000,0.0000000,0.0084869,0.0000000,0.0000000,0.0022008,0.0000000,0.0000000,0.0000000,0.0084869,0.0000000,0.0000000,0.0022008
74.1676480,0.9997500,,-0.9017236,-0.4323038,0.0006039,0.0027362,0.0005433,-0.0040710,0.0012884,,,,3.1692135,-6.6528897,-21.3253708,0.0000000,0.0000000,0.0000000,0.0199950,0.0655531,0.0000000,0.0000000,0.0085309,0.0000000,0.0000000,0.0000000,0.0655531,0.0000000,0.0000000,0.0085309,0.0000000,0.0000000,0.0000000,0.0655531,0.0000000,0.0000000,0.0085309,0.0085309,0.0000000,0.0000000,0.0022065,0.0000000,0.0000000,0.0000000,0.0085309,0.0000000,0.0000000,0.0022065,0.0000000,0.0000000,0.0000000,0.0085309,0.0000000,0.0000000,0.0022065
74.1888320,1.0499500,,-0.9017236,-0.4323038,0.0006138,0.0027465,0.0045289,-0.0017150,-0.0018048,,,,3.1692135,-6.6528897,-21.3253708,0.0000000,0.0000000,0.0000000,0.0209990,0.0659114,0.0000000,0.0000000,0.0085773,0.0000000,0.0000000,0.0000000,0.0659114,0.0000000,0.0000000,0.0085773,0.0000000,0.0000000,0.0000000,0.0659114,0.0000000,0.0000000,0.0085773,0.0085773,0.0000000,0.0000000,0.0022125,0.0000000,0.0000000,0.0000000,0.0085773,0.0000000,0.0000000,0.0022125,0.0000000,0.0000000,0.0000000,0.0085773,0.0000000,0.0000000,0.0022125
74.2048260,,1.0000401,-0.9017236,-0.4323038,0.0006138,0.0027465,,,,0.0000000,0.0000000,0.0000000,3.1692135,-6.6528897,-21.3253708,0.0000000,0.0000000,0.0000000,0.1000040,0.0642096,0.0000000,0.0000000,0.0083559,0.0000000,0.0000000,0.0000000,0.0642096,0.0000000,0.0000000,0.0083559,0.0000000,0.0000000,0.0000000,0.0642096,0.0000000,0.0000000,0.0083559,0.0083559,0.0000000,0.0000000,0.0021837,0.0000000,0.0000000,0.0000000,0.0083559,0.0000000,0.0000000,0.0021837,0.0000000,0.0000000,0.0000000,0.0083559,0.0000000,0.0000000,0.0021837
74.2183200,1.1005501,,-0.9017236,-0.4323037,0.0006476,0.0027565,0.0094971,-0.0036804,0.0027521,,,,3.1692135,-6.6528897,-21.3253708,0.0000000,0.0000000,0.0000000,0.0220110,0.0645775,0.0000000,0.0000000,0.0084040,0.0000000,0.0000000,0.0000000,0.0645775,0.0000000,0.0000000,0.0084040,0.0000000,0.0000000,0.0000000,0.0645775,0.0000000,0.0000000,0.0084040,0.0084040,0.0000000,0.0000000,0.0021900,0.0000000,0.0000000,0.0000000,0.0084040,0.0000000,0.0000000,0.0021900,0.0000000,0.0000000,0.0000000,0.0084040,0.0000000,0.0000000,0.0021900
74.2319010,1.0494500,,-0.9017236,-0.4323037,0.0006445,0.0027410,0.0014679,0.0060257,0.0023450,,,,3.1692135,-6.6528897,-21.3253708,0.0000000,0.0000000,0.0000000,0.0209890,0.0649303,0.0000000,0.0000000,0.0084500,0.0000000,0.0000000,0.0000000,0.0649303,0.0000000,0.0000000,0.0084500,0.0000000,0.0000000,0.0000000,0.0649303,0.0000000,0.0000000,0.0084500,0.0084500,0.0000000,0.0000000,0.0021960,0.0000000,0.0000000,0.0000000,0.0084500,0.0000000,0.0000000,0.0021960,0.0000000,0.0000000,0.0000000,0.0084500,0.0000000,0.0000000,0.0021960
74.2517400,1.0008000,,-0.9017236,-0.4323037,0.0006356,0.0027472,0.0076843,0.0030815,0.0028738,,,,3.1692135,-6.6528897,-21.3253708,0.0000000,0.0000000,0.0000000,0.0200160,0.0652685,0.0000000,0.0000000,0.0084940,0.0000000,0.0000000,0.0000000,0.0652685,0.0000000,0.0000000,0.0084940,0.0000000,0.0000000,0.0000000,0.0652685,0.0000000,0.0000000,0.0084940,0.0084940,0.0000000,0.0000000,0.0022017,0.0000000,0.0000000,0.0000000,0.0084940,0.0000000,0.0000000,0.0022017,0.0000000,0.0000000,0.0000000,0.0084940,0.0000000,0.0000000,0.0022017
74.2726460,1.0492500,,-0.9017236,-0.4323038,0.0006305,0.0027477,0.0061539,0.0013653,-0.0044301,,,,3.1692135,-6.6528897,-21.3253708,0.0000000,0.0000000,0.0000000,0.0209850,0.0656250,0.0000000,0.0000000,0.0085403,0.0000000,0.0000000,0.0000000,0.0656250,0.0000000,0.0000000,0.0085403,0.0000000,0.0000000,0.0000000,0.0656250,0.0000000,0.0000000,0.0085403,0.0085403,0.0000000,0.0000000,0.0022077,0.0000000,0.0000000,0.0000000,0.0085403,0.0000000,0.0000000,0.0022077,0.0000000,0.0000000,0.0000000,0.0085403,0.0000000,0.0000000,0.0022077
74.2938010,1.0499500,,-0.9017236,-0.4323038,0.0006206,0.0027625,0.0038933,-0.0060694,-0.0034434,,,,3.1692135,-6.6528897,-21.3253708,0.0000000,0.0000000,0.0000000,0.0209990,0.0659837,0.0000000,0.0000000,0.0085867,0.0000000,0.0000000,0.0000000,0.0659837,0.0000000,0.0000000,0.0085867,0.0000000,0.0000000,0.0000000,0.0659837,0.0000000,0.0000000,0.0085867,0.0085867,0.0000000,0.0000000,0.0022137,0.0000000,0.0000000,0.0000000,0.0085867,0.0000000,0.0000000,0.0022137,0.0000000,0.0000000,0.0000000,0.0085867,0.0000000,0.0000000,0.0022137
74.3097360,,1.0199300,-0.9017236,-0.4323038,0.0006206,0.0027625,,,,0.0000000,0.0000000,0.0000000,3.1692135,-6.6528897,-21.3253708,0.0000000,0.0000000,0.0000000,0.1019930,0.0642783,0.0000000,0.0000000,0.0083648,0.0000000,0.0000000,0.0000000,0.0642783,0.0000000,0.0000000,0.0083648,0.0000000,0.0000000,0.0000000,0.0642783,0.0000000,0.0000000,0.0083648,0.0083648,0.0000000,0.0000000,0.0021849,0.0000000,0.0000000,0.0000000,0.0083648,0.0000000,0.0000000,0.0021849,0.0000000,0.0000000,0.0000000,0.0083648,0.0000000,0.0000000,0.0021849
74.3232020,1.1003500,,-0.9017236,-0.4323038,0.0006173,0.0027726,0.0030071,-0.0083142,-0.0031942,,,,3.1692135,-6.6528897,-21.3253708,0.0000000,0.0000000,0.0000000,0.0220070,0.0646464,0.0000000,0.0000000,0.0084129,0.0000000,0.0000000,0.0000000,0.0646464,0.0000000,0.0000000,0.0084129,0.0000000,0.0000000,0.0000000,0.0646464,0.0000000,0.0000000,0.0084129,0.0084129,0.0000000,0.0000000,0.0021912,0.0000000,0.0000000,0.0000000,0.0084129,0.0000000,0.0000000,0.0021912,0.0000000,0.0000000,0.0000000,0.0084129,0.0000000,0.0000000,0.0021912
74.3369600,1.0496501,,-0.9017235,-0.4323037,0.0006280,0.0027968,0.0020834,-0.0079260,-0.0033137,,,,3.1692135,-6.6528897,-21.3253708,0.0000000,0.0000000,0.0000000,0.0209930,0.0649997,0.0000000,0.0000000,0.0084590,0.0000000,0.0000000,0.0000000,0.0649997,0.0000000,0.0000000,0.0084590,0.0000000,0.0000000,0.0000000,0.0649997,0.0000000,0.0000000,0.0084590,0.0084590,0.0000000,0.0000000,0.0021972,0.0000000,0.0000000,0.0000000,0.0084590,0.0000000,0.0000000,0.0021972,0.0000000,0.0000000,0.0000000,0.0084590,0.0000000,0.0000000,0.0021972
74.3567550,1.0006500,,-0.9017234,-0.4323037,0.0006480,0.0028261,0.0065196,-0.0020709,-0.0001996,,,,3.1692135,-6.6528897,-21.3253708,0.0000000,0.0000000,0.0000000,0.0200130,0.0653382,0.0000000,0.0000000,0.0085030,0.0000000,0.0000000,0.0000000,0.0653382,0.0000000,0.0000000,0.0085030,0.0000000,0.0000000,0.0000000,0.0653382,0.0000000,0.0000000,0.0085030,0.0085030,0.0000000,0.0000000,0.0022029,0.0000000,0.0000000,0.0000000,0.0085030,0.0000000,0.0000000,0.0022029,0.0000000,0.0000000,0.0000000,0.0085030,0.0000000,0.0000000,0.0022029
74.3776350,1.0493500,,-0.9017234,-0.4323037,0.0006454,0.0028096,0.0028783,0.0073798,0.0020898,,,,3.1692135,-6.6528897,-21.3253708,0.0000000,0.0000000,0.0000000,0.0209870,0.0656951,0.0000000,0.0000000,0.0085493,0.0000000,0.0000000,0.0000000,0.0656951,0.0000000,0.0000000,0.0085493,0.0000000,0.0000000,0.0000000,0.0656951,0.0000000,0.0000000,0.0085493,0.0085493,0.0000000,0.0000000,0.0022089,0.0000000,0.0000000,0.0000000,0.0085493,0.0000000,0.0000000,0.0022089,0.0000000,0.0000000,0.0000000,0.0085493,0.0000000,0.0000000,0.0022089
74.3987620,1.0499500,,-0.9017235,-0.4323037,0.0006424,0.0027969,0.0005694,0.0028201,-0.0004276,,,,3.1692135,-6.6528897,-21.3253708,0.0000000,0.0000000,0.0000000,0.0209990,0.0660542,0.0000000,0.0000000,0.0085958,0.0000000,0.0000000,0.0000000,0.0660542,0.0000000,0.0000000,0.0085958,0.0000000,0.0000000,0.0000000,0.0660542,0.0000000,0.0000000,0.0085958,0.0085958,0.0000000,0.0000000,0.0022149,0.0000000,0.0000000,0.0000000,0.0085958,0.0000000,0.0000000,0.0022149,0.0000000,0.0000000,0.0000000,0.0085958,0.0000000,0.0000000,0.0022149
74.4146340,,1.0000299,-0.9017235,-0.4323037,0.0006424,0.0027969,,,,0.0000000,0.0000000,0.0000000,3.1692135,-6.6528897,-21.3253708,0.0000000,0.0000000,0.0000000,0.1000030,0.0643452,0.0000000,0.0000000,0.0083734,0.0000000,0.0000000,0.0000000,0.0643452,0.0000000,0.0000000,0.0083734,0.0000000,0.0000000,0.0000000,0.0643452,0.0000000,0.0000000,0.0083734,0.0083734,0.0000000,0.0000000,0.0021860,0.0000000,0.0000000,0.0000000,0.0083734,0.0000000,0.0000000,0.0021860,0.0000000,0.0000000,0.0000000,0.0083734,0.0000000,0.0000000,0.0021860
74.4270720,1.1004000,,-0.9017235,-0.4323037,0.0006375,0.0027969,-0.0035224,0.0020128,0.0039290,,,,3.1692135,-6.6528897,-21.3253708,0.0000000,0.0000000,0.0000000,0.0220080,0.0647137,0.0000000,0.0000000,0.0084215,0.0000000,0.0000000,0.0000000,0.0647137,0.0000000,0.0000000,0.0084215,0.0000000,0.0000000,0.0000000,0.0647137,0.0000000,0.0000000,0.0084215,0.0084215,0.0000000,0.0000000,0.0021923,0.0000000,0.0000000,0.0000000,0.0084215,0.0000000,0.0000000,0.0021923,0.0000000,0.0000000,0.0000000,0.0084215,0.0000000,0.0000000,0.0021923
74.4419200,1.0496501,,-0.9017235,-0.4323038,0.0006173,0.0027830,-0.0016849,0.0003503,0.0002479,,,,3.1692135,-6.6528897,-21.3253708,0.0000000,0.0000000,0.0000000,0.0209930,0.0650673,0.0000000,0.0000000,0.0084676,0.0000000,0.0000000,0.0000000,0.0650673,0.0000000,0.0000000,0.0084676,0.0000000,0.0000000,0.0000000,0.0650673,0.0000000,0.0000000,0.0084676,0.0084676,0.0000000,0.0000000,0.0021983,0.0000000,0.0000000,0.0000000,0.0084676,0.0000000,0.0000000,0.0021983,0.0000000,0.0000000,0.0000000,0.0084676,0.0000000,0.0000000,0.0021983
74.4617200,1.0009000,,-0.9017235,-0.4323039,0.0005914,0.0027652,-0.0068849,-0.0022281,0.0057315,,,,3.1692135,-6.6528897,-21.3253708,0.0000000,0.0000000,0.0000000,0.0200180,0.0654063,0.0000000,0.0000000,0.0085117,0.0000000,0.0000000,0.0000000,0.0654063,0.0000000,0.0000000,0.0085117,0.0000000,0.0000000,0.0000000,0.0654063,0.0000000,0.0000000,0.0085117,0.0085117,0.0000000,0.0000000,0.0022040,0.0000000,0.0000000,0.0000000,0.0085117,0.0000000,0.0000000,0.0022040,0.0000000,0.0000000,0.0000000,0.0085117,0.0000000,0.0000000,0.0022040
74.4826360,1.0491500,,-0.9017235,-0.4323039,0.0005940,0.0027593,-0.0033585,-0.0005647,0.0067644,,,,3.1692135,-6.6528897,-21.3253708,0.0000000,0.0000000,0.0000000,0.0209830,0.0657635,0.0000000,0.0000000,0.0085580,0.0000000,0.0000000,0.0000000,0.0657635,0.0000000,0.0000000,0.0085580,0.0000000,0.0000000,0.0000000,0.0657635,0.0000000,0.0000000,0.0085580,0.0085580,0.0000000,0.0000000,0.0022100,0.0000000,0.0000000,0.0000000,0.0085580,0.0000000,0.0000000,0.0022100,0.0000000,0.0000000,0.0000000,0.0085580,0.0000000,0.0000000,0.0022100
74.5049890,,1.0099601,-0.9017235,-0.4323039,0.0005844,0.0027589,,,,0.0000000,0.0000000,0.0000000,3.1692135,-6.6528897,-21.3253708,0.0000000,0.0000000,0.0000000,0.1009960,0.0640693,0.0000000,0.0000000,0.0083375,0.0000000,0.0000000,0.0000000,0.0640693,0.0000000,0.0000000,0.0083375,0.0000000,0.0000000,0.0000000,0.0640693,0.0000000,0.0000000,0.0083375,0.0083375,0.0000000,0.0000000,0.0021813,0.0000000,0.0000000,0.0000000,0.0083375,0.0000000,0.0000000,0.0021813,0.0000000,0.0000000,0.0000000,0.0083375,0.0000000,0.0000000,0.0021813
74.5185350,1.1000500,,-0.9017235,-0.4323039,0.0005844,0.0027589,0.0025322,0.0017242,0.0031304,,,,3.1692135,-6.6528897,-21.3253708,0.0000000,0.0000000,0.0000000,0.0220010,0.0644362,0.0000000,0.0000000,0.0083856,0.0000000,0.0000000,0.0000000,0.0644362,0.0000000,0.0000000,0.0083856,0.0000000,0.0000000,0.0000000,0.0644362,0.0000000,0.0000000,0.0083856,0.0083856,0.0000000,0.0000000,0.0021876,0.0000000,0.0000000,0.0000000,0.0083856,0.0000000,0.0000000,0.0021876,0.0000000,0.0000000,0.0000000,0.0083856,0.0000000,0.0000000,0.0021876
74.5318250,1.3498501,,-0.9017235,-0.4323039,0.0005758,0.0027704,-0.0040592,0.0031280,0.0030224,,,,3.1692135,-6.6528897,-21.3253708,0.0000000,0.0000000,0.0000000,0.0269970,0.0648890,0.0000000,0.0000000,0.0084447,0.0000000,0.0000000,0.0000000,0.0648890,0.0000000,0.0000000,0.0084447,0.0000000,0.0000000,0.0000000,0.0648890,0.0000000,0.0000000,0.0084447,0.0084447,0.0000000,0.0000000,0.0021953,0.0000000,0.0000000,0.0000000,0.0084447,0.0000000,0.0000000,0.0021953,0.0000000,0.0000000,0.0000000,0.0084447,0.0000000,0.0000000,0.0021953
74.5519760,1.0000000,,-0.9017235,-0.4323039,0.0005728,0.0027626,-0.0075838,0.0072250,0.0068747,,,,3.1692135,-6.6528897,-21.3253708,0.0000000,0.0000000,0.0000000,0.0200000,0.0652267,0.0000000,0.0000000,0.0084887,0.0000000,0.0000000,0.0000000,0.0652267,0.0000000,0.0000000,0.0084887,0.0000000,0.0000000,0.0000000,0.0652267,0.0000000,0.0000000,0.0084887,0.0084887,0.0000000,0.0000000,0.0022010,0.0000000,0.0000000,0.0000000,0.0084887,0.0000000,0.0000000,0.0022010,0.0000000,0.0000000,0.0000000,0.0084887,0.0000000,0.0000000,0.0022010
74.5720930,1.0005500,,-0.9017234,-0.4323040,0.0005643,0.0027833,-0.0008393,0.0105324,0.0009883,,,,3.1692135,-6.6528897,-21.3253708,0.0000000,0.0000000,0.0000000,0.0200110,0.0655665,0.0000000,0.0000000,0.0085328,0.0000000,0.0000000,0.0000000,0.0655665,0.0000000,0.0000000,0.0085328,0.0000000,0.0000000,0.0000000,0.0655665,0.0000000,0.0000000,0.0085328,0.0085328,0.0000000,0.0000000,0.0022068,0.0000000,0.0000000,0.0000000,0.0085328,0.0000000,0.0000000,0.0022068,0.0000000,0.0000000,0.0000000,0.0085328,0.0000000,0.0000000,0.0022068
74.5933220,0.9994500,,-0.9017234,-0.4323039,0.0005664,0.0028085,-0.0006409,0.0034351,0.0019514,,,,3.1692135,-6.6528897,-21.3253708,0.0000000,0.0000000,0.0000000,0.0199890,0.0659076,0.0000000,0.0000000,0.0085769,0.0000000,0.0000000,0.0000000,0.0659076,0.0000000,0.0000000,0.0085769,0.0000000,0.0000000,0.0000000,0.0659076,0.0000000,0.0000000,0.0085769,0.0085769,0.0000000,0.0000000,0.0022125,0.0000000,0.0000000,0.0000000,0.0085769,0.0000000,0.0000000,0.0022125,0.0000000,0.0000000,0.0000000,0.0085769,0.0000000,0.0000000,0.0022125
74.6087240,,1.0000100,-0.9017234,-0.4323039,0.0005664,0.0028123,,,,0.0000000,0.0000000,0.0000000,3.1692135,-6.6528897,-21.3253708,0.0000000,0.0000000,0.0000000,0.1000010,0.0642060,0.0000000,0.0000000,0.0083555,0.0000000,0.0000000,0.0000000,0.0642060,0.0000000,0.0000000,0.0083555,0.0000000,0.0000000,0.0000000,0.0642060,0.0000000,0.0000000,0.0083555,0.0083555,0.0000000,0.0000000,0.0021837,0.0000000,0.0000000,0.0000000,0.0083555,0.0000000,0.0000000,0.0021837,0.0000000,0.0000000,0.0000000,0.0083555,0.0000000,0.0000000,0.0021837
74.6225830,1.0001000,,-0.9017234,-0.4323040,0.0005564,0.0028123,-0.0022583,0.0049829,0.0009681,,,,3.1692135,-6.6528897,-21.3253708,0.0000000,0.0000000,0.0000000,0.0200020,0.0645403,0.0000000,0.0000000,0.0083992,0.0000000,0.0000000,0.0000000,0.0645403,0.0000000,0.0000000,0.0083992,0.0000000,0.0000000,0.0000000,0.0645403,0.0000000,0.0000000,0.0083992,0.0083992,0.0000000,0.0000000,0.0021894,0.0000000,0.0000000,0.0000000,0.0083992,0.0000000,0.0000000,0.0021894,0.0000000,0.0000000,0.0000000,0.0083992,0.0000000,0.0000000,0.0021894
74.6357380,1.1999000,,-0.9017233,-0.4323041,0.0005224,0.0028276,0.0010147,0.0006299,-0.0005002,,,,3.1692135,-6.6528897,-21.3253708,0.0000000,0.0000000,0.0000000,0.0239980,0.0649434,0.0000000,0.0000000,0.0084518,0.0000000,0.0000000,0.0000000,0.0649434,0.0000000,0.0000000,0.0084518,0.0000000,0.0000000,0.0000000,0.0649434,0.0000000,0.0000000,0.0084518,0.0084518,0.0000000,0.0000000,0.0021963,0.0000000,0.0000000,0.0000000,0.0084518,0.0000000,0.0000000,0.0021963,0.0000000,0.0000000,0.0000000,0.0084518,0.0000000,0.0000000,0.0021963
74.6567830,1.0501001,,-0.9017233,-0.4323042,0.0004812,0.0028262,0.0048103,0.0020773,0.0031603,,,,3.1692135,-6.6528897,-21.3253708,0.0000000,0.0000000,0.0000000,0.0210020,0.0652984,0.0000000,0.0000000,0.0084980,0.0000000,0.0000000,0.0000000,0.0652984,0.0000000,0.0000000,0.0084980,0.0000000,0.0000000,0.0000000,0.0652984,0.0000000,0.0000000,0.0084980,0.0084980,0.0000000,0.0000000,0.0022023,0.0000000,0.0000000,0.0000000,0.0084980,0.0000000,0.0000000,0.0022023,0.0000000,0.0000000,0.0000000,0.0084980,0.0000000,0.0000000,0.0022023
74.6779500,1.0500000,,-0.9017233,-0.4323042,0.0004767,0.0028362,-0.0032787,-0.0025319,0.0027932,,,,3.1692135,-6.6528897,-21.3253708,0.0000000,0.0000000,0.0000000,0.0210000,0.0656554,0.0000000,0.0000000,0.0085443,0.0000000,0.0000000,0.0000000,0.0656554,0.0000000,0.0000000,0.0085443,0.0000000,0.0000000,0.0000000,0.0656554,0.0000000,0.0000000,0.0085443,0.0085443,0.0000000,0.0000000,0.0022083,0.0000000,0.0000000,0.0000000,0.0085443,0.0000000,0.0000000,0.0022083,0.0000000,0.0000000,0.0000000,0.0085443,0.0000000,0.0000000,0.0022083
74.6977370,1.0007499,,-0.9017233,-0.4323042,0.0004680,0.0028466,-0.0041647,0.0019994,0.0011448,,,,3.1692135,-6.6528897,-21.3253708,0.0000000,0.0000000,0.0000000,0.0200150,0.0659974,0.0000000,0.0000000,0.0085886,0.0000000,0.0000000,0.0000000,0.0659974,0.0000000,0.0000000,0.0085886,0.0000000,0.0000000,0.0000000,0.0659974,0.0000000,0.0000000,0.0085886,0.0085886,0.0000000,0.0000000,0.0022140,0.0000000,0.0000000,0.0000000,0.0085886,0.0000000,0.0000000,0.0022140,0.0000000,0.0000000,0.0000000,0.0085886,0.0000000,0.0000000,0.0022140
74.7131260,,1.0200800,-0.9017233,-0.4323042,0.0004680,0.0028466,,,,0.0000000,0.0000000,0.0000000,3.1692135,-6.6528897,-21.3253708,0.0000000,0.0000000,0.0000000,0.1020080,0.0642913,0.0000000,0.0000000,0.0083666,0.0000000,0.0000000,0.0000000,0.0642913,0.0000000,0.0000000,0.0083666,0.0000000,0.0000000,0.0000000,0.0642913,0.0000000,0.0000000,0.0083666,0.0083666,0.0000000,0.0000000,0.0021851,0.0000000,0.0000000,0.0000000,0.0083666,0.0000000,0.0000000,0.0021851,0.0000000,0.0000000,0.0000000,0.0083666,0.0000000,0.0000000,0.0021851
74.7276330,1.0993000,,-0.9017233,-0.4323042,0.0004663,0.0028321,-0.0009227,0.0027697,0.0008089,,,,3.1692135,-6.6528897,-21.3253708,0.0000000,0.0000000,0.0000000,0.0219860,0.0646592,0.0000000,0.0000000,0.0084147,0.0000000,0.0000000,0.0000000,0.0646592,0.0000000,0.0000000,0.0084147,0.0000000,0.0000000,0.0000000,0.0646592,0.0000000,0.0000000,0.0084147,0.0084147,0.0000000,0.0000000,0.0021914,0.0000000,0.0000000,0.0000000,0.0084147,0.0000000,0.0000000,0.0021914,0.0000000,0.0000000,0.0000000,0.0084147,0.0000000,0.0000000,0.0021914
74.7408760,1.0500000,,-0.9017233,-0.4323042,0.0004706,0.0028330,-0.0056493,0.0031701,-0.0039977,,,,3.1692135,-6.6528897,-21.3253708,0.0000000,0.0000000,0.0000000,0.0210000,0.0650126,0.0000000,0.0000000,0.0084607,0.0000000,0.0000000,0.0000000,0.0650126,0.0000000,0.0000000,0.0084607,0.0000000,0.0000000,0.0000000,0.0650126,0.0000000,0.0000000,0.0084607,0.0084607,0.0000000,0.0000000,0.0021974,0.0000000,0.0000000,0.0000000,0.0084607,0.0000000,0.0000000,0.0021974,0.0000000,0.0000000,0.0000000,0.0084607,0.0000000,0.0000000,0.0021974
74.7618490,1.0502501,,-0.9017233,-0.4323041,0.0004853,0.0028361,-0.0050601,-0.0027179,-0.0117721,,,,3.1692135,-6.6528897,-21.3253708,0.0000000,0.0000000,0.0000000,0.0210050,0.0653680,0.0000000,0.0000000,0.0085070,0.0000000,0.0000000,0.0000000,0.0653680,0.0000000,0.0000000,0.0085070,0.0000000,0.0000000,0.0000000,0.0653680,0.0000000,0.0000000,0.0085070,0.0085070,0.0000000,0.0000000,0.0022034,0.0000000,0.0000000,0.0000000,0.0085070,0.0000000,0.0000000,0.0022034,0.0000000,0.0000000,0.0000000,0.0085070,0.0000000,0.0000000,0.0022034
74.7831860,1.0007000,,-0.9017233,-0.4323041,0.0004941,0.0028410,0.0047560,-0.0024805,-0.0022316,,,,3.1692135,-6.6528897,-21.3253708,0.0000000,0.0000000,0.0000000,0.0200140,0.0657085,0.0000000,0.0000000,0.0085511,0.0000000,0.0000000,0.0000000,0.0657085,0.0000000,0.0000000,0.0085511,0.0000000,0.0000000,0.0000000,0.0657085,0.0000000,0.0000000,0.0085511,0.0085511,0.0000000,0.0000000,0.0022091,0.0000000,0.0000000,0.0000000,0.0085511,0.0000000,0.0000000,0.0022091,0.0000000,0.0000000,0.0000000,0.0085511,0.0000000,0.0000000,0.0022091
74.8017980,0.9993000,,-0.9017233,-0.4323041,0.0004908,0.0028478,0.0047584,-0.0018658,0.0030270,,,,3.1692135,-6.6528897,-21.3253708,0.0000000,0.0000000,0.0000000,0.0199860,0.0660503,0.0000000,0.0000000,0.0085953,0.0000000,0.0000000,0.0000000,0.0660503,0.0000000,0.0000000,0.0085953,0.0000000,0.0000000,0.0000000,0.0660503,0.0000000,0.0000000,0.0085953,0.0085953,0.0000000,0.0000000,0.0022149,0.0000000,0.0000000,0.0000000,0.0085953,0.0000000,0.0000000,0.0022149,0.0000000,0.0000000,0.0000000,0.0085953,0.0000000,0.0000000,0.0022149
74.8176430,,0.9999300,-0.9017233,-0.4323041,0.0004908,0.0028478,,,,0.0000000,0.0000000,0.0000000,3.1692135,-6.6528897,-21.3253708,0.0000000,0.0000000,0.0000000,0.0999930,0.0643415,0.0000000,0.0000000,0.0083730,0.0000000,0.0000000,0.0000000,0.0643415,0.0000000,0.0000000,0.0083730,0.0000000,0.0000000,0.0000000,0.0643415,0.0000000,0.0000000,0.0083730,0.0083730,0.0000000,0.0000000,0.0021859,0.0000000,0.0000000,0.0000000,0.0083730,0.0000000,0.0000000,0.0021859,0.0000000,0.0000000,0.0000000,0.0083730,0.0000000,0.0000000,0.0021859
74.8315920,0.9999000,,-0.9017233,-0.4323041,0.0004952,0.0028432,0.0052707,-0.0057242,0.0037031,,,,3.1692135,-6.6528897,-21.3253708,0.0000000,0.0000000,0.0000000,0.0199980,0.0646764,0.0000000,0.0000000,0.0084167,0.0000000,0.0000000,0.0000000,0.0646764,0.0000000,0.0000000,0.0084167,0.0000000,0.0000000,0.0000000,0.0646764,0.0000000,0.0000000,0.0084167,0.0084167,0.0000000,0.0000000,0.0021916,0.0000000,0.0000000,0.0000000,0.0084167,0.0000000,0.0000000,0.0021916,0.0000000,0.0000000,0.0000000,0.0084167,0.0000000,0.0000000,0.0021916
74.8446770,1.1497000,,-0.9016894,-0.4323736,0.0004692,0.0029924,0.0326876,-0.1294719,0.0296760,,,,3.1692135,-6.6528897,-21.3253708,0.0000000,0.0000000,0.0000000,0.0229940,0.0650635,0.0000000,0.0000000,0.0084672,0.0000000,0.0000000,0.0000000,0.0650635,0.0000000,0.0000000,0.0084672,0.0000000,0.0000000,0.0000000,0.0650635,0.0000000,0.0000000,0.0084672,0.0084672,0.0000000,0.0000000,0.0021982,0.0000000,0.0000000,0.0000000,0.0084672,0.0000000,0.0000000,0.0021982,0.0000000,0.0000000,0.0000000,0.0084672,0.0000000,0.0000000,0.0021982
74.8647680,1.0003999,,-0.9016583,-0.4324355,0.0006534,0.0033623,0.0118272,-0.0986028,0.0101917,,,,3.1692135,-6.6528897,-21.3253708,0.0000000,0.0000000,0.0000000,0.0200080,0.0654023,0.0000000,0.0000000,0.0085112,0.0000000,0.0000000,0.0000000,0.0654023,0.0000000,0.0000000,0.0085112,0.0000000,0.0000000,0.0000000,0.0654023,0.0000000,0.0000000,0.0085112,0.0085112,0.0000000,0.0000000,0.0022039,0.0000000,0.0000000,0.0000000,0.0085112,0.0000000,0.0000000,0.0022039,0.0000000,0.0000000,0.0000000,0.0085112,0.0000000,0.0000000,0.0022039
74.8859660,1.0504000,,-0.9016210,-0.4325105,0.0008453,0.0036619,0.0210045,-0.0543139,-0.0002905,,,,3.1692135,-6.6528897,-21.3253708,0.0000000,0.0000000,0.0000000,0.0210080,0.0657599,0.0000000,0.0000000,0.0085576,0.0000000,0.0000000,0.0000000,0.0657599,0.0000000,0.0000000,0.0085576,0.0000000,0.0000000,0.0000000,0.0657599,0.0000000,0.0000000,0.0085576,0.0085576,0.0000000,0.0000000,0.0022100,0.0000000,0.0000000,0.0000000,0.0085576,0.0000000,0.0000000,0.0022100,0.0000000,0.0000000,0.0000000,0.0085576,0.0000000,0.0000000,0.0022100
74.9067530,,0.9999800,-0.9015900,-0.4325720,0.0010247,0.0039504,,,,0.0000000,0.0000000,0.0000000,3.1692135,-6.6528897,-21.3253708,0.0000000,0.0000000,0.0000000,0.0999980,0.0640659,0.0000000,0.0000000,0.0083371,0.0000000,0.0000000,0.0000000,0.0640659,0.0000000,0.0000000,0.0083371,0.0000000,0.0000000,0.0000000,0.0640659,0.0000000,0.0000000,0.0083371,0.0083371,0.0000000,0.0000000,0.0021813,0.0000000,0.0000000,0.0000000,0.0083371,0.0000000,0.0000000,0.0021813,0.0000000,0.0000000,0.0000000,0.0083371,0.0000000,0.0000000,0.0021813
74.9204720,0.9997000,,-0.9015900,-0.4325720,0.0010247,0.0039504,0.0400280,-0.0364801,-0.0077289,,,,3.1692135,-6.6528897,-21.3253708,0.0000000,0.0000000,0.0000000,0.0199940,0.0643992,0.0000000,0.0000000,0.0083808,0.0000000,0.0000000,0.0000000,0.0643992,0.0000000,0.0000000,0.0083808,0.0000000,0.0000000,0.0000000,0.0643992,0.0000000,0.0000000,0.0083808,0.0083808,0.0000000,0.0000000,0.0021870,0.0000000,0.0000000,0.0000000,0.0083808,0.0000000,0.0000000,0.0021870,0.0000000,0.0000000,0.0000000,0.0083808,0.0000000,0.0000000,0.0021870
74.9341640,1.3995000,,-0.9015620,-0.4326289,0.0010921,0.0041016,0.0282538,-0.0407544,0.0176047,,,,3.1692135,-6.6528897,-21.3253708,0.0000000,0.0000000,0.0000000,0.0279900,0.0648684,0.0000000,0.0000000,0.0084421,0.0000000,0.0000000,0.0000000,0.0648684,0.0000000,0.0000000,0.0084421,0.0000000,0.0000000,0.0000000,0.0648684,0.0000000,0.0000000,0.0084421,0.0084421,0.0000000,0.0000000,0.0021950,0.0000000,0.0000000,0.0000000,0.0084421,0.0000000,0.0000000,0.0021950,0.0000000,0.0000000,0.0000000,0.0084421,0.0000000,0.0000000,0.0021950
74.9538650,1.0000000,,-0.9015418,-0.4326669,0.0011375,0.0044921,0.0069781,-0.0686789,0.0285548,,,,3.1692135,-6.6528897,-21.3253708,0.0000000,0.0000000,0.0000000,0.0200000,0.0652061,0.0000000,0.0000000,0.0084861,0.0000000,0.0000000,0.0000000,0.0652061,0.0000000,0.0000000,0.0084861,0.0000000,0.0000000,0.0000000,0.0652061,0.0000000,0.0000000,0.0084861,0.0084861,0.0000000,0.0000000,0.0022007,0.0000000,0.0000000,0.0000000,0.0084861,0.0000000,0.0000000,0.0022007,0.0000000,0.0000000,0.0000000,0.0084861,0.0000000,0.0000000,0.0022007
74.9737850,1.0007000,,-0.9015293,-0.4326882,0.0013883,0.0048515,-0.0304846,-0.0672603,0.0594205,,,,3.1692135,-6.6528897,-21.3253708,0.0000000,0.0000000,0.0000000,0.0200140,0.0655458,0.0000000,0.0000000,0.0085302,0.0000000,0.0000000,0.0000000,0.0655458,0.0000000,0.0000000,0.0085302,0.0000000,0.0000000,0.0000000,0.0655458,0.0000000,0.0000000,0.0085302,0.0085302,0.0000000,0.0000000,0.0022064,0.0000000,0.0000000,0.0000000,0.0085302,0.0000000,0.0000000,0.0022064,0.0000000,0.0000000,0.0000000,0.0085302,0.0000000,0.0000000,0.0022064
74.9945990,1.0495000,,-0.9015002,-0.4327445,0.0014762,0.0051955,-0.1016757,0.1114504,-0.1233964,,,,3.1692135,-6.6528897,-21.3253708,0.0000000,0.0000000,0.0000000,0.0209900,0.0659038,0.0000000,0.0000000,0.0085765,0.0000000,0.0000000,0.0000000,0.0659038,0.0000000,0.0000000,0.0085765,0.0000000,0.0000000,0.0000000,0.0659038,0.0000000,0.0000000,0.0085765,0.0085765,0.0000000,0.0000000,0.0022125,0.0000000,0.0000000,0.0000000,0.0085765,0.0000000,0.0000000,0.0022125,0.0000000,0.0000000,0.0000000,0.0085765,0.0000000,0.0000000,0.0022125
75.0114150,,1.0200100,-0.9015002,-0.4327445,0.0014762,0.0051955,,,,-0.0900329,-0.1371872,-0.0004654,3.1668892,-6.6564312,-21.3253822,-0.0003025,-0.0004609,-0.0000016,0.1020010,0.0642025,0.0000000,0.0000000,0.0083551,0.0000000,0.0000000,0.0000000,0.0642025,0.0000000,0.0000000,0.0083551,0.0000000,0.0000000,0.0000000,0.0642025,0.0000000,0.0000000,0.0083551,0.0083551,0.0000000,0.0000000,0.0021836,0.0000000,0.0000000,0.0000000,0.0083551,0.0000000,0.0000000,0.0021836,0.0000000,0.0000000,0.0000000,0.0083551,0.0000000,0.0000000,0.0021836
75.0247250,1.1006001,,-0.9015168,-0.4327129,0.0012131,0.0050240,-0.0174059,0.1374208,-0.1220238,,,,3.1668892,-6.6564312,-21.3253822,0.0000000,0.0000000,0.0000000,0.0220120,0.0645703,0.0000000,0.0000000,0.0084032,0.0000000,0.0000000,0.0000000,0.0645703,0.0000000,0.0000000,0.0084032,0.0000000,0.0000000,0.0000000,0.0645703,0.0000000,0.0000000,0.0084032,0.0084032,0.0000000,0.0000000,0.0021899,0.0000000,0.0000000,0.0000000,0.0084032,0.0000000,0.0000000,0.0021899,0.0000000,0.0000000,0.0000000,0.0084032,0.0000000,0.0000000,0.0021899
75.0379610,1.0492500,,-0.9015071,-0.4327294,0.0008761,0.0053933,-0.0019204,-0.1607208,-0.0485913,,,,3.1668892,-6.6564312,-21.3253822,0.0000000,0.0000000,0.0000000,0.0209850,0.0649230,0.0000000,0.0000000,0.0084493,0.0000000,0.0000000,0.0000000,0.0649230,0.0000000,0.0000000,0.0084493,0.0000000,0.0000000,0.0000000,0.0649230,0.0000000,0.0000000,0.0084493,0.0084493,0.0000000,0.0000000,0.0021959,0.0000000,0.0000000,0.0000000,0.0084493,0.0000000,0.0000000,0.0021959,0.0000000,0.0000000,0.0000000,0.0084493,0.0000000,0.0000000,0.0021959
75.0579300,1.0003500,,-0.9015403,-0.4326557,0.0007811,0.0057718,-0.0266789,0.0912552,-0.0135916,,,,3.1668892,-6.6564312,-21.3253822,0.0000000,0.0000000,0.0000000,0.0200070,0.0652611,0.0000000,0.0000000,0.0084933,0.0000000,0.0000000,0.0000000,0.0652611,0.0000000,0.0000000,0.0084933,0.0000000,0.0000000,0.0000000,0.0652611,0.0000000,0.0000000,0.0084933,0.0084933,0.0000000,0.0000000,0.0022017,0.0000000,0.0000000,0.0000000,0.0084933,0.0000000,0.0000000,0.0022017,0.0000000,0.0000000,0.0000000,0.0084933,0.0000000,0.0000000,0.0022017
75.0777820,1.0005001,,-0.9015669,-0.4326022,0.0004229,0.0056543,0.0182615,0.0452767,-0.0468654,,,,3.1668892,-6.6564312,-21.3253822,0.0000000,0.0000000,0.0000000,0.0200100,0.0656010,0.0000000,0.0000000,0.0085374,0.0000000,0.0000000,0.0000000,0.0656010,0.0000000,0.0000000,0.0085374,0.0000000,0.0000000,0.0000000,0.0656010,0.0000000,0.0000000,0.0085374,0.0085374,0.0000000,0.0000000,0.0022074,0.0000000,0.0000000,0.0000000,0.0085374,0.0000000,0.0000000,0.0022074,0.0000000,0.0000000,0.0000000,0.0085374,0.0000000,0.0000000,0.0022074
75.0989460,1.0492001,,-0.9015575,-0.4326164,0.0007745,0.0060093,0.0235122,0.0925846,0.1093417,,,,3.1668892,-6.6564312,-21.3253822,0.0000000,0.0000000,0.0000000,0.0209840,0.0659593,0.0000000,0.0000000,0.0085837,0.0000000,0.0000000,0.0000000,0.0659593,0.0000000,0.0000000,0.0085837,0.0000000,0.0000000,0.0000000,0.0659593,0.0000000,0.0000000,0.0085837,0.0085837,0.0000000,0.0000000,0.0022134,0.0000000,0.0000000,0.0000000,0.0085837,0.0000000,0.0000000,0.0022134,0.0000000,0.0000000,0.0000000,0.0085837,0.0000000,0.0000000,0.0022134
75.1149990,,1.0200000,-0.9015575,-0.4326164,0.0007745,0.0060093,,,,-0.1028087,-0.1411044,-0.0007563,3.1642330,-6.6600771,-21.3254013,-0.0003457,-0.0004744,-0.0000025,0.1020000,0.0642551,0.0000000,0.0000000,0.0083620,0.0000000,0.0000000,0.0000000,0.0642551,0.0000000,0.0000000,0.0083620,0.0000000,0.0000000,0.0000000,0.0642551,0.0000000,0.0000000,0.0083620,0.0083620,0.0000000,0.0000000,0.0021845,0.0000000,0.0000000,0.0000000,0.0083620,0.0000000,0.0000000,0.0021845,0.0000000,0.0000000,0.0000000,0.0083620,0.0000000,0.0000000,0.0021845
75.1285790,1.1003500,,-0.9015624,-0.4326025,0.0006803,0.0062924,0.0690147,0.0854387,0.0910096,,,,3.1642330,-6.6600771,-21.3254013,0.0000000,0.0000000,0.0000000,0.0220070,0.0646231,0.0000000,0.0000000,0.0084101,0.0000000,0.0000000,0.0000000,0.0646231,0.0000000,0.0000000,0.0084101,0.0000000,0.0000000,0.0000000,0.0646231,0.0000000,0.0000000,0.0084101,0.0084101,0.0000000,0.0000000,0.0021908,0.0000000,0.0000000,0.0000000,0.0084101,0.0000000,0.0000000,0.0021908,0.0000000,0.0000000,0.0000000,0.0084101,0.0000000,0.0000000,0.0021908
75.1419440,1.0496000,,-0.9015718,-0.4325756,0.0008944,0.0067480,0.0323940,-0.0062079,0.1040528,,,,3.1642330,-6.6600771,-21.3254013,0.0000000,0.0000000,0.0000000,0.0209920,0.0649762,0.0000000,0.0000000,0.0084562,0.0000000,0.0000000,0.0000000,0.0649762,0.0000000,0.0000000,0.0084562,0.0000000,0.0000000,0.0000000,0.0649762,0.0000000,0.0000000,0.0084562,0.0084562,0.0000000,0.0000000,0.0021968,0.0000000,0.0000000,0.0000000,0.0084562,0.0000000,0.0000000,0.0021968,0.0000000,0.0000000,0.0000000,0.0084562,0.0000000,0.0000000,0.0021968
75.1619750,1.0007499,,-0.9015937,-0.4325297,0.0009118,0.0067682,-0.0186159,0.1784680,-0.1804413,,,,3.1642587,-6.6601028,-21.3253651,0.0025798,-0.0025670,0.0035632,0.0200150,0.0653147,0.0000000,0.0000000,0.0085002,0.0000000,0.0000000,0.0000000,0.0653147,0.0000000,0.0000000,0.0085002,0.0000000,0.0000000,0.0000000,0.0653147,0.0000000,0.0000000,0.0085002,0.0085002,0.0000000,0.0000000,0.0022026,0.0000000,0.0000000,0.0000000,0.0085002,0.0000000,0.0000000,0.0022026,0.0000000,0.0000000,0.0000000,0.0085002,0.0000000,0.0000000,0.0022026
75.1818230,1.0001501,,-0.9016308,-0.4324464,0.0009766,0.0071322,-0.0091630,-0.1064371,-0.0407135,,,,3.1642587,-6.6601028,-21.3253651,0.0000000,0.0000000,0.0000000,0.0200030,0.0656548,0.0000000,0.0000000,0.0085443,0.0000000,0.0000000,0.0000000,0.0656548,0.0000000,0.0000000,0.0085443,0.0000000,0.0000000,0.0000000,0.0656548,0.0000000,0.0000000,0.0085443,0.0085443,0.0000000,0.0000000,0.0022083,0.0000000,0.0000000,0.0000000,0.0085443,0.0000000,0.0000000,0.0022083,0.0000000,0.0000000,0.0000000,0.0085443,0.0000000,0.0000000,0.0022083
75.2026620,1.0492001,,-0.9017000,-0.4322969,0.0010449,0.0074281,0.0978279,0.0362666,0.0772461,,,,3.1642587,-6.6601028,-21.3253651,0.0000000,0.0000000,0.0000000,0.0209840,0.0660134,0.0000000,0.0000000,0.0085907,0.0000000,0.0000000,0.0000000,0.0660134,0.0000000,0.0000000,0.0085907,0.0000000,0.0000000,0.0000000,0.0660134,0.0000000,0.0000000,0.0085907,0.0085907,0.0000000,0.0000000,0.0022143,0.0000000,0.0000000,0.0000000,0.0085907,0.0000000,0.0000000,0.0022143,0.0000000,0.0000000,0.0000000,0.0085907,0.0000000,0.0000000,0.0022143
75.2189140,,1.0000700,-0.9017000,-0.4322969,0.0010449,0.0074281,,,,-0.1043563,-0.1301744,-0.0007594,3.1615596,-6.6634684,-21.3253860,-0.0003512,-0.0004380,-0.0000027,0.1000070,0.0643064,0.0000000,0.0000000,0.0083686,0.0000000,0.0000000,0.0000000,0.0643064,0.0000000,0.0000000,0.0083686,0.0000000,0.0000000,0.0000000,0.0643064,0.0000000,0.0000000,0.0083686,0.0083686,0.0000000,0.0000000,0.0021854,0.0000000,0.0000000,0.0000000,0.0083686,0.0000000,0.0000000,0.0021854,0.0000000,0.0000000,0.0000000,0.0083686,0.0000000,0.0000000,0.0021854
75.2325530,1.1000000,,-0.9016951,-0.4323021,0.0010861,0.0077050,0.0398884,-0.0562075,-0.0131958,,,,3.1615596,-6.6634684,-21.3253860,0.0000000,0.0000000,0.0000000,0.0220000,0.0646747,0.0000000,0.0000000,0.0084167,0.0000000,0.0000000,0.0000000,0.0646747,0.0000000,0.0000000,0.0084167,0.0000000,0.0000000,0.0000000,0.0646747,0.0000000,0.0000000,0.0084167,0.0084167,0.0000000,0.0000000,0.0021917,0.0000000,0.0000000,0.0000000,0.0084167,0.0000000,0.0000000,0.0021917,0.0000000,0.0000000,0.0000000,0.0084167,0.0000000,0.0000000,0.0021917
75.2459530,1.0502501,,-0.9017459,-0.4321887,0.0014276,0.0080509,0.0164499,-0.0475969,0.0402084,,,,3.1615596,-6.6634684,-21.3253860,0.0000000,0.0000000,0.0000000,0.0210050,0.0650282,0.0000000,0.0000000,0.0084628,0.0000000,0.0000000,0.0000000,0.0650282,0.0000000,0.0000000,0.0084628,0.0000000,0.0000000,0.0000000,0.0650282,0.0000000,0.0000000,0.0084628,0.0084628,0.0000000,0.0000000,0.0021977,0.0000000,0.0000000,0.0000000,0.0084628,0.0000000,0.0000000,0.0021977,0.0000000,0.0000000,0.0000000,0.0084628,0.0000000,0.0000000,0.0021977
75.2656890,1.0000501,,-0.9017310,-0.4322295,0.0010718,0.0075611,0.0219273,0.0141426,0.0747459,,,,3.1615596,-6.6634684,-21.3253860,0.0000000,0.0000000,0.0000000,0.0200010,0.0653668,0.0000000,0.0000000,0.0085068,0.0000000,0.0000000,0.0000000,0.0653668,0.0000000,0.0000000,0.0085068,0.0000000,0.0000000,0.0000000,0.0653668,0.0000000,0.0000000,0.0085068,0.0085068,0.0000000,0.0000000,0.0022034,0.0000000,0.0000000,0.0000000,0.0085068,0.0000000,0.0000000,0.0022034,0.0000000,0.0000000,0.0000000,0.0085068,0.0000000,0.0000000,0.0022034
75.2867850,1.0496501,,-0.9017271,-0.4322351,0.0012479,0.0076900,-0.0126112,0.0562427,0.0233959,,,,3.1615596,-6.6634684,-21.3253860,0.0000000,0.0000000,0.0000000,0.0209930,0.0657239,0.0000000,0.0000000,0.0085531,0.0000000,0.0000000,0.0000000,0.0657239,0.0000000,0.0000000,0.0085531,0.0000000,0.0000000,0.0000000,0.0657239,0.0000000,0.0000000,0.0085531,0.0085531,0.0000000,0.0000000,0.0022094,0.0000000,0.0000000,0.0000000,0.0085531,0.0000000,0.0000000,0.0022094,0.0000000,0.0000000,0.0000000,0.0085531,0.0000000,0.0000000,0.0022094
75.3079300,1.0500000,,-0.9017040,-0.4322868,0.0011038,0.0075299,-0.0122870,0.0896295,-0.0623301,,,,3.1615596,-6.6634684,-21.3253860,0.0000000,0.0000000,0.0000000,0.0210000,0.0660832,0.0000000,0.0000000,0.0085996,0.0000000,0.0000000,0.0000000,0.0660832,0.0000000,0.0000000,0.0085996,0.0000000,0.0000000,0.0000000,0.0660832,0.0000000,0.0000000,0.0085996,0.0085996,0.0000000,0.0000000,0.0022154,0.0000000,0.0000000,0.0000000,0.0085996,0.0000000,0.0000000,0.0022154,0.0000000,0.0000000,0.0000000,0.0085996,0.0000000,0.0000000,0.0022154
75.3229290,,0.9999300,-0.9017040,-0.4322868,0.0011038,0.0075299,,,,-0.2140467,-0.2913052,-0.0018584,3.1560192,-6.6710086,-21.3254337,-0.0007210,-0.0009812,-0.0000063,0.0999930,0.0643727,0.0000000,0.0000000,0.0083770,0.0000000,0.0000000,0.0000000,0.0643727,0.0000000,0.0000000,0.0083770,0.0000000,0.0000000,0.0000000,0.0643727,0.0000000,0.0000000,0.0083770,0.0083770,0.0000000,0.0000000,0.0021865,0.0000000,0.0000000,0.0000000,0.0083770,0.0000000,0.0000000,0.0021865,0.0000000,0.0000000,0.0000000,0.0083770,0.0000000,0.0000000,0.0021865
75.3364830,1.0008000,,-0.9016729,-0.4323452,0.0014816,0.0078143,-0.0729083,-0.0659717,-0.0336751,,,,3.1560192,-6.6710086,-21.3254337,0.0000000,0.0000000,0.0000000,0.0200160,0.0647080,0.0000000,0.0000000,0.0084208,0.0000000,0.0000000,0.0000000,0.0647080,0.0000000,0.0000000,0.0084208,0.0000000,0.0000000,0.0000000,0.0647080,0.0000000,0.0000000,0.0084208,0.0084208,0.0000000,0.0000000,0.0021922,0.0000000,0.0000000,0.0000000,0.0084208,0.0000000,0.0000000,0.0021922,0.0000000,0.0000000,0.0000000,0.0084208,0.0000000,0.0000000,0.0021922
75.3497940,1.0991000,,-0.9017296,-0.4322361,0.0011931,0.0073407,0.0151053,0.0212058,-0.0325083,,,,3.1560192,-6.6710086,-21.3254337,0.0000000,0.0000000,0.0000000,0.0219820,0.0650782,0.0000000,0.0000000,0.0084691,0.0000000,0.0000000,0.0000000,0.0650782,0.0000000,0.0000000,0.0084691,0.0000000,0.0000000,0.0000000,0.0650782,0.0000000,0.0000000,0.0084691,0.0084691,0.0000000,0.0000000,0.0021985,0.0000000,0.0000000,0.0000000,0.0084691,0.0000000,0.0000000,0.0021985,0.0000000,0.0000000,0.0000000,0.0084691,0.0000000,0.0000000,0.0021985
75.3709730,1.0506999,,-0.9017256,-0.4322354,0.0014423,0.0078033,-0.0306249,0.0068263,0.0969584,,,,3.1560192,-6.6710086,-21.3254337,0.0000000,0.0000000,0.0000000,0.0210140,0.0654342,0.0000000,0.0000000,0.0085153,0.0000000,0.0000000,0.0000000,0.0654342,0.0000000,0.0000000,0.0085153,0.0000000,0.0000000,0.0000000,0.0654342,0.0000000,0.0000000,0.0085153,0.0085153,0.0000000,0.0000000,0.0022045,0.0000000,0.0000000,0.0000000,0.0085153,0.0000000,0.0000000,0.0022045,0.0000000,0.0000000,0.0000000,0.0085153,0.0000000,0.0000000,0.0022045
75.3909810,0.9994500,,-0.9017370,-0.4322210,0.0012819,0.0072987,-0.0250475,0.1491880,0.0210897,,,,3.1560192,-6.6710086,-21.3254337,0.0000000,0.0000000,0.0000000,0.0199890,0.0657746,0.0000000,0.0000000,0.0085594,0.0000000,0.0000000,0.0000000,0.0657746,0.0000000,0.0000000,0.0085594,0.0000000,0.0000000,0.0000000,0.0657746,0.0000000,0.0000000,0.0085594,0.0085594,0.0000000,0.0000000,0.0022102,0.0000000,0.0000000,0.0000000,0.0085594,0.0000000,0.0000000,0.0022102,0.0000000,0.0000000,0.0000000,0.0085594,0.0000000,0.0000000,0.0022102
75.4126770,,0.9999800,-0.9017121,-0.4322791,0.0009594,0.0069786,,,,-0.1370263,-0.1586096,-0.0007308,3.1524885,-6.6750956,-21.3254528,0.0000000,0.0000000,0.0000000,0.0999980,0.0640798,0.0000000,0.0000000,0.0083389,0.0000000,0.0000000,0.0000000,0.0640798,0.0000000,0.0000000,0.0083389,0.0000000,0.0000000,0.0000000,0.0640798,0.0000000,0.0000000,0.0083389,0.0083389,0.0000000,0.0000000,0.0021815,0.0000000,0.0000000,0.0000000,0.0083389,0.0000000,0.0000000,0.0021815,0.0000000,0.0000000,0.0000000,0.0083389,0.0000000,0.0000000,0.0021815
75.4262520,1.0003999,,-0.9017121,-0.4322791,0.0009594,0.0069786,-0.0053064,0.0078826,-0.0156164,,,,3.1524885,-6.6750956,-21.3254528,0.0000000,0.0000000,0.0000000,0.0200080,0.0644135,0.0000000,0.0000000,0.0083826,0.0000000,0.0000000,0.0000000,0.0644135,0.0000000,0.0000000,0.0083826,0.0000000,0.0000000,0.0000000,0.0644135,0.0000000,0.0000000,0.0083826,0.0083826,0.0000000,0.0000000,0.0021872,0.0000000,0.0000000,0.0000000,0.0083826,0.0000000,0.0000000,0.0021872,0.0000000,0.0000000,0.0000000,0.0083826,0.0000000,0.0000000,0.0021872
75.4397980,1.4494500,,-0.9017407,-0.4322248,0.0007953,0.0066575,-0.0585309,0.1754577,-0.0195651,,,,3.1524885,-6.6750956,-21.3254528,0.0000000,0.0000000,0.0000000,0.0289890,0.0648995,0.0000000,0.0000000,0.0084461,0.0000000,0.0000000,0.0000000,0.0648995,0.0000000,0.0000000,0.0084461,0.0000000,0.0000000,0.0000000,0.0648995,0.0000000,0.0000000,0.0084461,0.0084461,0.0000000,0.0000000,0.0021955,0.0000000,0.0000000,0.0000000,0.0084461,0.0000000,0.0000000,0.0021955,0.0000000,0.0000000,0.0000000,0.0084461,0.0000000,0.0000000,0.0021955
75.4598290,1.0000000,,-0.9017166,-0.4322702,0.0008930,0.0069688,-0.0244360,0.0839828,0.0223906,,,,3.1524885,-6.6750956,-21.3254528,0.0000000,0.0000000,0.0000000,0.0200000,0.0652373,0.0000000,0.0000000,0.0084901,0.0000000,0.0000000,0.0000000,0.0652373,0.0000000,0.0000000,0.0084901,0.0000000,0.0000000,0.0000000,0.0652373,0.0000000,0.0000000,0.0084901,0.0084901,0.0000000,0.0000000,0.0022012,0.0000000,0.0000000,0.0000000,0.0084901,0.0000000,0.0000000,0.0022012,0.0000000,0.0000000,0.0000000,0.0084901,0.0000000,0.0000000,0.0022012
75.4797660,1.0008000,,-0.9017305,-0.4322445,0.0009961,0.0067530,0.0023084,0.2011940,-0.0354737,,,,3.1524885,-6.6750956,-21.3254528,0.0000000,0.0000000,0.0000000,0.0200160,0.0655772,0.0000000,0.0000000,0.0085342,0.0000000,0.0000000,0.0000000,0.0655772,0.0000000,0.0000000,0.0085342,0.0000000,0.0000000,0.0000000,0.0655772,0.0000000,0.0000000,0.0085342,0.0085342,0.0000000,0.0000000,0.0022070,0.0000000,0.0000000,0.0000000,0.0085342,0.0000000,0.0000000,0.0022070,0.0000000,0.0000000,0.0000000,0.0085342,0.0000000,0.0000000,0.0022070
75.5007460,1.0493001,,-0.9017162,-0.4322655,0.0010855,0.0072641,-0.0077341,0.0182758,-0.0324463,,,,3.1524885,-6.6750956,-21.3254528,0.0000000,0.0000000,0.0000000,0.0209860,0.0659354,0.0000000,0.0000000,0.0085806,0.0000000,0.0000000,0.0000000,0.0659354,0.0000000,0.0000000,0.0085806,0.0000000,0.0000000,0.0000000,0.0659354,0.0000000,0.0000000,0.0085806,0.0085806,0.0000000,0.0000000,0.0022130,0.0000000,0.0000000,0.0000000,0.0085806,0.0000000,0.0000000,0.0022130,0.0000000,0.0000000,0.0000000,0.0085806,0.0000000,0.0000000,0.0022130
75.5169180,,1.0200300,-0.9017162,-0.4322655,0.0010855,0.0072641,,,,-0.1147907,-0.1426476,-0.0007893,3.1495237,-6.6787801,-21.3254738,-0.0003858,-0.0004795,-0.0000027,0.1020030,0.0642324,0.0000000,0.0000000,0.0083589,0.0000000,0.0000000,0.0000000,0.0642324,0.0000000,0.0000000,0.0083589,0.0000000,0.0000000,0.0000000,0.0642324,0.0000000,0.0000000,0.0083589,0.0083589,0.0000000,0.0000000,0.0021841,0.0000000,0.0000000,0.0000000,0.0083589,0.0000000,0.0000000,0.0021841,0.0000000,0.0000000,0.0000000,0.0083589,0.0000000,0.0000000,0.0021841
75.5305580,1.0999500,,-0.9017601,-0.4321710,0.0013161,0.0074154,-0.0223378,0.1416376,-0.0099289,,,,3.1495237,-6.6787801,-21.3254738,0.0000000,0.0000000,0.0000000,0.0219990,0.0646002,0.0000000,0.0000000,0.0084070,0.0000000,0.0000000,0.0000000,0.0646002,0.0000000,0.0000000,0.0084070,0.0000000,0.0000000,0.0000000,0.0646002,0.0000000,0.0000000,0.0084070,0.0084070,0.0000000,0.0000000,0.0021904,0.0000000,0.0000000,0.0000000,0.0084070,0.0000000,0.0000000,0.0021904,0.0000000,0.0000000,0.0000000,0.0084070,0.0000000,0.0000000,0.0021904
75.5438280,1.0500000,,-0.9017576,-0.4321801,0.0010627,0.0072298,-0.0449747,-0.0394183,-0.0216118,,,,3.1495237,-6.6787801,-21.3254738,0.0000000,0.0000000,0.0000000,0.0210000,0.0649533,0.0000000,0.0000000,0.0084531,0.0000000,0.0000000,0.0000000,0.0649533,0.0000000,0.0000000,0.0084531,0.0000000,0.0000000,0.0000000,0.0649533,0.0000000,0.0000000,0.0084531,0.0084531,0.0000000,0.0000000,0.0021964,0.0000000,0.0000000,0.0000000,0.0084531,0.0000000,0.0000000,0.0021964,0.0000000,0.0000000,0.0000000,0.0084531,0.0000000,0.0000000,0.0021964
75.5638350,1.0005500,,-0.9017724,-0.4321433,0.0012766,0.0075376,-0.0218465,-0.0215097,-0.0035427,,,,3.1495237,-6.6787801,-21.3254738,0.0000000,0.0000000,0.0000000,0.0200110,0.0652916,0.0000000,0.0000000,0.0084971,0.0000000,0.0000000,0.0000000,0.0652916,0.0000000,0.0000000,0.0084971,0.0000000,0.0000000,0.0000000,0.0652916,0.0000000,0.0000000,0.0084971,0.0084971,0.0000000,0.0000000,0.0022022,0.0000000,0.0000000,0.0000000,0.0084971,0.0000000,0.0000000,0.0022022,0.0000000,0.0000000,0.0000000,0.0084971,0.0000000,0.0000000,0.0022022
75.5846890,1.0496000,,-0.9017965,-0.4320952,0.0010258,0.0074603,0.0236989,-0.0464833,-0.0001158,,,,3.1495237,-6.6787801,-21.3254738,0.0000000,0.0000000,0.0000000,0.0209920,0.0656484,0.0000000,0.0000000,0.0085434,0.0000000,0.0000000,0.0000000,0.0656484,0.0000000,0.0000000,0.0085434,0.0000000,0.0000000,0.0000000,0.0656484,0.0000000,0.0000000,0.0085434,0.0085434,0.0000000,0.0000000,0.0022082,0.0000000,0.0000000,0.0000000,0.0085434,0.0000000,0.0000000,0.0022082,0.0000000,0.0000000,0.0000000,0.0085434,0.0000000,0.0000000,0.0022082
75.6058850,1.0500000,,-0.9018063,-0.4320683,0.0010641,0.0078144,0.0046778,0.0082830,0.0030549,,,,3.1495237,-6.6787801,-21.3254738,0.0000000,0.0000000,0.0000000,0.0210000,0.0660072,0.0000000,0.0000000,0.0085898,0.0000000,0.0000000,0.0000000,0.0660072,0.0000000,0.0000000,0.0085898,0.0000000,0.0000000,0.0000000,0.0660072,0.0000000,0.0000000,0.0085898,0.0085898,0.0000000,0.0000000,0.0022142,0.0000000,0.0000000,0.0000000,0.0085898,0.0000000,0.0000000,0.0022142,0.0000000,0.0000000,0.0000000,0.0085898,0.0000000,0.0000000,0.0022142
75.6220560,,1.0000100,-0.9018063,-0.4320683,0.0010641,0.0078144,,,,-0.2118968,-0.2635172,-0.0016344,3.1440451,-6.6855936,-21.3255157,-0.0007130,-0.0008866,-0.0000055,0.1000010,0.0643006,0.0000000,0.0000000,0.0083677,0.0000000,0.0000000,0.0000000,0.0643006,0.0000000,0.0000000,0.0083677,0.0000000,0.0000000,0.0000000,0.0643006,0.0000000,0.0000000,0.0083677,0.0083677,0.0000000,0.0000000,0.0021853,0.0000000,0.0000000,0.0000000,0.0083677,0.0000000,0.0000000,0.0021853,0.0000000,0.0000000,0.0000000,0.0083677,0.0000000,0.0000000,0.0021853
75.6359120,1.0002999,,-0.9018295,-0.4320216,0.0007813,0.0077514,0.0429273,0.0864932,-0.0331939,,,,3.1440451,-6.6855936,-21.3255157,0.0000000,0.0000000,0.0000000,0.0200060,0.0646354,0.0000000,0.0000000,0.0084115,0.0000000,0.0000000,0.0000000,0.0646354,0.0000000,0.0000000,0.0084115,0.0000000,0.0000000,0.0000000,0.0646354,0.0000000,0.0000000,0.0084115,0.0084115,0.0000000,0.0000000,0.0021910,0.0000000,0.0000000,0.0000000,0.0084115,0.0000000,0.0000000,0.0021910,0.0000000,0.0000000,0.0000000,0.0084115,0.0000000,0.0000000,0.0021910
75.6487810,1.1495000,,-0.9018176,-0.4320257,0.0011741,0.0087350,0.0074485,-0.0200621,0.0602158,,,,3.1440451,-6.6855936,-21.3255157,0.0000000,0.0000000,0.0000000,0.0229900,0.0650221,0.0000000,0.0000000,0.0084620,0.0000000,0.0000000,0.0000000,0.0650221,0.0000000,0.0000000,0.0084620,0.0000000,0.0000000,0.0000000,0.0650221,0.0000000,0.0000000,0.0084620,0.0084620,0.0000000,0.0000000,0.0021976,0.0000000,0.0000000,0.0000000,0.0084620,0.0000000,0.0000000,0.0021976,0.0000000,0.0000000,0.0000000,0.0084620,0.0000000,0.0000000,0.0021976
75.6699060,1.0504000,,-0.9018412,-0.4319845,0.0007997,0.0083897,0.0519039,0.0362336,-0.0009590,,,,3.1440451,-6.6855936,-21.3255157,0.0000000,0.0000000,0.0000000,0.0210080,0.0653777,0.0000000,0.0000000,0.0085082,0.0000000,0.0000000,0.0000000,0.0653777,0.0000000,0.0000000,0.0085082,0.0000000,0.0000000,0.0000000,0.0653777,0.0000000,0.0000000,0.0085082,0.0085082,0.0000000,0.0000000,0.0022036,0.0000000,0.0000000,0.0000000,0.0085082,0.0000000,0.0000000,0.0022036,0.0000000,0.0000000,0.0000000,0.0085082,0.0000000,0.0000000,0.0022036
