t,predict_cpu,update_cpu,quat_x,quat_y,quat_z,quat_w,accel_x,accel_y,accel_z,of_x,of_y,of_z,x_x,x_y,x_z,x_vx,x_vy,x_vz,dt,P_0,P_1,P_2,P_3,P_4,P_5,P_6,P_7,P_8,P_9,P_10,P_11,P_12,P_13,P_14,P_15,P_16,P_17,P_18,P_19,P_20,P_21,P_22,P_23,P_24,P_25,P_26,P_27,P_28,P_29,P_30,P_31,P_32,P_33,P_34,P_35
37.5983710,,1.0198699,-0.9989699,-0.0453255,-0.0005004,0.0020976,,,,0.0000000,0.0000000,0.0000000,0.3680912,-7.2147741,-21.3936939,0.0000000,0.0000000,0.0000000,0.1019870,0.0515286,0.0000000,0.0000000,0.0071274,0.0000000,0.0000000,0.0000000,0.0515286,0.0000000,0.0000000,0.0071274,0.0000000,0.0000000,0.0000000,0.0515286,0.0000000,0.0000000,0.0071274,0.0071274,0.0000000,0.0000000,0.0019763,0.0000000,0.0000000,0.0000000,0.0071274,0.0000000,0.0000000,0.0019763,0.0000000,0.0000000,0.0000000,0.0071274,0.0000000,0.0000000,0.0019763
37.6122520,1.0996500,,-0.9989699,-0.0453256,-0.0005270,0.0021001,0.0050039,-0.0023717,-0.0001657,,,,0.3680912,-7.2147741,-21.3936939,0.0000000,0.0000000,0.0000000,0.0219930,0.0518421,0.0000000,0.0000000,0.0071710,0.0000000,0.0000000,0.0000000,0.0518421,0.0000000,0.0000000,0.0071710,0.0000000,0.0000000,0.0000000,0.0518421,0.0000000,0.0000000,0.0071710,0.0071710,0.0000000,0.0000000,0.0019823,0.0000000,0.0000000,0.0000000,0.0071710,0.0000000,0.0000000,0.0019823,0.0000000,0.0000000,0.0000000,0.0071710,0.0000000,0.0000000,0.0019823
37.6258020,1.1499000,,-0.9989699,-0.0453256,-0.0005484,0.0021148,0.0037913,-0.0022540,-0.0071629,,,,0.3680912,-7.2147741,-21.3936939,0.0000000,0.0000000,0.0000000,0.0229980,0.0521720,0.0000000,0.0000000,0.0072166,0.0000000,0.0000000,0.0000000,0.0521720,0.0000000,0.0000000,0.0072166,0.0000000,0.0000000,0.0000000,0.0521720,0.0000000,0.0000000,0.0072166,0.0072166,0.0000000,0.0000000,0.0019886,0.0000000,0.0000000,0.0000000,0.0072166,0.0000000,0.0000000,0.0019886,0.0000000,0.0000000,0.0000000,0.0072166,0.0000000,0.0000000,0.0019886
37.6482230,1.0502001,,-0.9989699,-0.0453257,-0.0005772,0.0021204,0.0097463,-0.0019586,-0.0035815,,,,0.3680912,-7.2147741,-21.3936939,0.0000000,0.0000000,0.0000000,0.0210040,0.0524751,0.0000000,0.0000000,0.0072585,0.0000000,0.0000000,0.0000000,0.0524751,0.0000000,0.0000000,0.0072585,0.0000000,0.0000000,0.0000000,0.0524751,0.0000000,0.0000000,0.0072585,0.0072585,0.0000000,0.0000000,0.0019944,0.0000000,0.0000000,0.0000000,0.0072585,0.0000000,0.0000000,0.0019944,0.0000000,0.0000000,0.0000000,0.0072585,0.0000000,0.0000000,0.0019944
37.6667680,0.9997500,,-0.9989699,-0.0453257,-0.0005935,0.0021075,0.0049037,0.0015766,-0.0013025,,,,0.3680912,-7.2147741,-21.3936939,0.0000000,0.0000000,0.0000000,0.0199950,0.0527654,0.0000000,0.0000000,0.0072984,0.0000000,0.0000000,0.0000000,0.0527654,0.0000000,0.0000000,0.0072984,0.0000000,0.0000000,0.0000000,0.0527654,0.0000000,0.0000000,0.0072984,0.0072984,0.0000000,0.0000000,0.0019999,0.0000000,0.0000000,0.0000000,0.0072984,0.0000000,0.0000000,0.0019999,0.0000000,0.0000000,0.0000000,0.0072984,0.0000000,0.0000000,0.0019999
37.6857540,,1.0100100,-0.9989698,-0.0453258,-0.0006101,0.0021116,,,,0.0000000,0.0000000,0.0000000,0.3680912,-7.2147741,-21.3936939,0.0000000,0.0000000,0.0000000,0.1010010,0.0513232,0.0000000,0.0000000,0.0070989,0.0000000,0.0000000,0.0000000,0.0513232,0.0000000,0.0000000,0.0070989,0.0000000,0.0000000,0.0000000,0.0513232,0.0000000,0.0000000,0.0070989,0.0070989,0.0000000,0.0000000,0.0019723,0.0000000,0.0000000,0.0000000,0.0070989,0.0000000,0.0000000,0.0019723,0.0000000,0.0000000,0.0000000,0.0070989,0.0000000,0.0000000,0.0019723
37.6996500,1.0001501,,-0.9989698,-0.0453258,-0.0006101,0.0021116,0.0049085,-0.0046896,-0.0013836,,,,0.3680912,-7.2147741,-21.3936939,0.0000000,0.0000000,0.0000000,0.0200030,0.0516072,0.0000000,0.0000000,0.0071384,0.0000000,0.0000000,0.0000000,0.0516072,0.0000000,0.0000000,0.0071384,0.0000000,0.0000000,0.0000000,0.0516072,0.0000000,0.0000000,0.0071384,0.0071384,0.0000000,0.0000000,0.0019778,0.0000000,0.0000000,0.0000000,0.0071384,0.0000000,0.0000000,0.0019778,0.0000000,0.0000000,0.0000000,0.0071384,0.0000000,0.0000000,0.0019778
37.7127770,1.2995501,,-0.9989698,-0.0453257,-0.0005893,0.0021453,0.0025229,-0.0053203,0.0000406,,,,0.3680912,-7.2147741,-21.3936939,0.0000000,0.0000000,0.0000000,0.0259910,0.0519782,0.0000000,0.0000000,0.0071899,0.0000000,0.0000000,0.0000000,0.0519782,0.0000000,0.0000000,0.0071899,0.0000000,0.0000000,0.0000000,0.0519782,0.0000000,0.0000000,0.0071899,0.0071899,0.0000000,0.0000000,0.0019849,0.0000000,0.0000000,0.0000000,0.0071899,0.0000000,0.0000000,0.0019849,0.0000000,0.0000000,0.0000000,0.0071899,0.0000000,0.0000000,0.0019849
37.7352430,1.0500000,,-0.9989697,-0.0453257,-0.0005884,0.0021739,0.0025279,-0.0087865,-0.0053508,,,,0.3680912,-7.2147741,-21.3936939,0.0000000,0.0000000,0.0000000,0.0210000,0.0522802,0.0000000,0.0000000,0.0072316,0.0000000,0.0000000,0.0000000,0.0522802,0.0000000,0.0000000,0.0072316,0.0000000,0.0000000,0.0000000,0.0522802,0.0000000,0.0000000,0.0072316,0.0072316,0.0000000,0.0000000,0.0019907,0.0000000,0.0000000,0.0000000,0.0072316,0.0000000,0.0000000,0.0019907,0.0000000,0.0000000,0.0000000,0.0072316,0.0000000,0.0000000,0.0019907
37.7540070,1.0000000,,-0.9989697,-0.0453257,-0.0005952,0.0021858,-0.0048014,0.0033963,-0.0026754,,,,0.3680912,-7.2147741,-21.3936939,0.0000000,0.0000000,0.0000000,0.0200000,0.0525695,0.0000000,0.0000000,0.0072715,0.0000000,0.0000000,0.0000000,0.0525695,0.0000000,0.0000000,0.0072715,0.0000000,0.0000000,0.0000000,0.0525695,0.0000000,0.0000000,0.0072715,0.0072715,0.0000000,0.0000000,0.0019962,0.0000000,0.0000000,0.0000000,0.0072715,0.0000000,0.0000000,0.0019962,0.0000000,0.0000000,0.0000000,0.0072715,0.0000000,0.0000000,0.0019962
37.7740830,1.0000000,,-0.9989697,-0.0453257,-0.0005854,0.0022057,-0.0047811,-0.0017122,-0.0052439,,,,0.3680912,-7.2147741,-21.3936939,0.0000000,0.0000000,0.0000000,0.0200000,0.0528603,0.0000000,0.0000000,0.0073115,0.0000000,0.0000000,0.0000000,0.0528603,0.0000000,0.0000000,0.0073115,0.0000000,0.0000000,0.0000000,0.0528603,0.0000000,0.0000000,0.0073115,0.0073115,0.0000000,0.0000000,0.0020016,0.0000000,0.0000000,0.0000000,0.0073115,0.0000000,0.0000000,0.0020016,0.0000000,0.0000000,0.0000000,0.0073115,0.0000000,0.0000000,0.0020016
37.7909720,,1.0000100,-0.9989697,-0.0453257,-0.0005854,0.0022178,,,,0.0000000,0.0000000,0.0000000,0.3680912,-7.2147741,-21.3936939,0.0000000,0.0000000,0.0000000,0.1000010,0.0514130,0.0000000,0.0000000,0.0071113,0.0000000,0.0000000,0.0000000,0.0514130,0.0000000,0.0000000,0.0071113,0.0000000,0.0000000,0.0000000,0.0514130,0.0000000,0.0000000,0.0071113,0.0071113,0.0000000,0.0000000,0.0019740,0.0000000,0.0000000,0.0000000,0.0071113,0.0000000,0.0000000,0.0019740,0.0000000,0.0000000,0.0000000,0.0071113,0.0000000,0.0000000,0.0019740
37.8048680,1.0008500,,-0.9989697,-0.0453257,-0.0005891,0.0022178,-0.0006358,-0.0001160,-0.0065282,,,,0.3680912,-7.2147741,-21.3936939,0.0000000,0.0000000,0.0000000,0.0200170,0.0516977,0.0000000,0.0000000,0.0071508,0.0000000,0.0000000,0.0000000,0.0516977,0.0000000,0.0000000,0.0071508,0.0000000,0.0000000,0.0000000,0.0516977,0.0000000,0.0000000,0.0071508,0.0071508,0.0000000,0.0000000,0.0019794,0.0000000,0.0000000,0.0000000,0.0071508,0.0000000,0.0000000,0.0019794,0.0000000,0.0000000,0.0000000,0.0071508,0.0000000,0.0000000,0.0019794
37.8177520,1.1991500,,-0.9989696,-0.0453257,-0.0005986,0.0022351,-0.0015157,-0.0032013,-0.0010668,,,,0.3680912,-7.2147741,-21.3936939,0.0000000,0.0000000,0.0000000,0.0239830,0.0520407,0.0000000,0.0000000,0.0071984,0.0000000,0.0000000,0.0000000,0.0520407,0.0000000,0.0000000,0.0071984,0.0000000,0.0000000,0.0000000,0.0520407,0.0000000,0.0000000,0.0071984,0.0071984,0.0000000,0.0000000,0.0019860,0.0000000,0.0000000,0.0000000,0.0071984,0.0000000,0.0000000,0.0019860,0.0000000,0.0000000,0.0000000,0.0071984,0.0000000,0.0000000,0.0019860
37.8402180,1.0500000,,-0.9989696,-0.0453257,-0.0006044,0.0022268,0.0012182,0.0005890,-0.0000451,,,,0.3680912,-7.2147741,-21.3936939,0.0000000,0.0000000,0.0000000,0.0210000,0.0523430,0.0000000,0.0000000,0.0072402,0.0000000,0.0000000,0.0000000,0.0523430,0.0000000,0.0000000,0.0072402,0.0000000,0.0000000,0.0000000,0.0523430,0.0000000,0.0000000,0.0072402,0.0072402,0.0000000,0.0000000,0.0019918,0.0000000,0.0000000,0.0000000,0.0072402,0.0000000,0.0000000,0.0019918,0.0000000,0.0000000,0.0000000,0.0072402,0.0000000,0.0000000,0.0019918
37.8590670,1.0000501,,-0.9989696,-0.0453257,-0.0006111,0.0022328,-0.0032819,0.0029953,-0.0027081,,,,0.3680912,-7.2147741,-21.3936939,0.0000000,0.0000000,0.0000000,0.0200010,0.0526327,0.0000000,0.0000000,0.0072800,0.0000000,0.0000000,0.0000000,0.0526327,0.0000000,0.0000000,0.0072800,0.0000000,0.0000000,0.0000000,0.0526327,0.0000000,0.0000000,0.0072800,0.0072800,0.0000000,0.0000000,0.0019973,0.0000000,0.0000000,0.0000000,0.0072800,0.0000000,0.0000000,0.0019973,0.0000000,0.0000000,0.0000000,0.0072800,0.0000000,0.0000000,0.0019973
37.8789640,0.9999500,,-0.9989696,-0.0453258,-0.0006319,0.0022280,-0.0036093,0.0022301,-0.0006216,,,,0.3680912,-7.2147741,-21.3936939,0.0000000,0.0000000,0.0000000,0.0199990,0.0529238,0.0000000,0.0000000,0.0073200,0.0000000,0.0000000,0.0000000,0.0529238,0.0000000,0.0000000,0.0073200,0.0000000,0.0000000,0.0000000,0.0529238,0.0000000,0.0000000,0.0073200,0.0073200,0.0000000,0.0000000,0.0020028,0.0000000,0.0000000,0.0000000,0.0073200,0.0000000,0.0000000,0.0020028,0.0000000,0.0000000,0.0000000,0.0073200,0.0000000,0.0000000,0.0020028
37.8948140,,1.0200200,-0.9989696,-0.0453258,-0.0006319,0.0022280,,,,0.0000000,0.0000000,0.0000000,0.3680912,-7.2147741,-21.3936939,0.0000000,0.0000000,0.0000000,0.1020020,0.0514731,0.0000000,0.0000000,0.0071194,0.0000000,0.0000000,0.0000000,0.0514731,0.0000000,0.0000000,0.0071194,0.0000000,0.0000000,0.0000000,0.0514731,0.0000000,0.0000000,0.0071194,0.0071194,0.0000000,0.0000000,0.0019750,0.0000000,0.0000000,0.0000000,0.0071194,0.0000000,0.0000000,0.0019750,0.0000000,0.0000000,0.0000000,0.0071194,0.0000000,0.0000000,0.0019750
37.9090840,1.0004500,,-0.9989696,-0.0453258,-0.0006479,0.0022282,-0.0040325,0.0008709,0.0011540,,,,0.3680912,-7.2147741,-21.3936939,0.0000000,0.0000000,0.0000000,0.0200090,0.0517580,0.0000000,0.0000000,0.0071590,0.0000000,0.0000000,0.0000000,0.0517580,0.0000000,0.0000000,0.0071590,0.0000000,0.0000000,0.0000000,0.0517580,0.0000000,0.0000000,0.0071590,0.0071590,0.0000000,0.0000000,0.0019805,0.0000000,0.0000000,0.0000000,0.0071590,0.0000000,0.0000000,0.0019805,0.0000000,0.0000000,0.0000000,0.0071590,0.0000000,0.0000000,0.0019805
37.9238680,1.2495500,,-0.9989696,-0.0453259,-0.0006708,0.0022135,-0.0018255,-0.0010599,-0.0025968,,,,0.3680912,-7.2147741,-21.3936939,0.0000000,0.0000000,0.0000000,0.0249910,0.0521158,0.0000000,0.0000000,0.0072085,0.0000000,0.0000000,0.0000000,0.0521158,0.0000000,0.0000000,0.0072085,0.0000000,0.0000000,0.0000000,0.0521158,0.0000000,0.0000000,0.0072085,0.0072085,0.0000000,0.0000000,0.0019874,0.0000000,0.0000000,0.0000000,0.0072085,0.0000000,0.0000000,0.0019874,0.0000000,0.0000000,0.0000000,0.0072085,0.0000000,0.0000000,0.0019874
37.9449730,1.0501001,,-0.9989696,-0.0453259,-0.0006888,0.0022090,-0.0070849,-0.0005528,0.0001664,,,,0.3680912,-7.2147741,-21.3936939,0.0000000,0.0000000,0.0000000,0.0210020,0.0524186,0.0000000,0.0000000,0.0072503,0.0000000,0.0000000,0.0000000,0.0524186,0.0000000,0.0000000,0.0072503,0.0000000,0.0000000,0.0000000,0.0524186,0.0000000,0.0000000,0.0072503,0.0072503,0.0000000,0.0000000,0.0019931,0.0000000,0.0000000,0.0000000,0.0072503,0.0000000,0.0000000,0.0019931,0.0000000,0.0000000,0.0000000,0.0072503,0.0000000,0.0000000,0.0019931
37.9649890,1.0000000,,-0.9989696,-0.0453259,-0.0006929,0.0022091,-0.0036035,-0.0020007,-0.0013816,,,,0.3680912,-7.2147741,-21.3936939,0.0000000,0.0000000,0.0000000,0.0200000,0.0527086,0.0000000,0.0000000,0.0072902,0.0000000,0.0000000,0.0000000,0.0527086,0.0000000,0.0000000,0.0072902,0.0000000,0.0000000,0.0000000,0.0527086,0.0000000,0.0000000,0.0072902,0.0072902,0.0000000,0.0000000,0.0019986,0.0000000,0.0000000,0.0000000,0.0072902,0.0000000,0.0000000,0.0019986,0.0000000,0.0000000,0.0000000,0.0072902,0.0000000,0.0000000,0.0019986
37.9850960,0.9999000,,-0.9989695,-0.0453259,-0.0007045,0.0022323,-0.0031064,-0.0021905,-0.0004467,,,,0.3680912,-7.2147741,-21.3936939,0.0000000,0.0000000,0.0000000,0.0199980,0.0530002,0.0000000,0.0000000,0.0073303,0.0000000,0.0000000,0.0000000,0.0530002,0.0000000,0.0000000,0.0073303,0.0000000,0.0000000,0.0000000,0.0530002,0.0000000,0.0000000,0.0073303,0.0073303,0.0000000,0.0000000,0.0020041,0.0000000,0.0000000,0.0000000,0.0073303,0.0000000,0.0000000,0.0020041,0.0000000,0.0000000,0.0000000,0.0073303,0.0000000,0.0000000,0.0020041
38.0019060,,1.0000299,-0.9989695,-0.0453259,-0.0007045,0.0022277,,,,0.0000000,0.0000000,0.0000000,0.3680912,-7.2147741,-21.3936939,0.0000000,0.0000000,0.0000000,0.1000030,0.0515453,0.0000000,0.0000000,0.0071290,0.0000000,0.0000000,0.0000000,0.0515453,0.0000000,0.0000000,0.0071290,0.0000000,0.0000000,0.0000000,0.0515453,0.0000000,0.0000000,0.0071290,0.0071290,0.0000000,0.0000000,0.0019763,0.0000000,0.0000000,0.0000000,0.0071290,0.0000000,0.0000000,0.0019763,0.0000000,0.0000000,0.0000000,0.0071290,0.0000000,0.0000000,0.0019763
38.0155020,1.0002999,,-0.9989695,-0.0453260,-0.0007164,0.0022277,-0.0014006,0.0025592,-0.0043737,,,,0.3680912,-7.2147741,-21.3936939,0.0000000,0.0000000,0.0000000,0.0200060,0.0518305,0.0000000,0.0000000,0.0071686,0.0000000,0.0000000,0.0000000,0.0518305,0.0000000,0.0000000,0.0071686,0.0000000,0.0000000,0.0000000,0.0518305,0.0000000,0.0000000,0.0071686,0.0071686,0.0000000,0.0000000,0.0019818,0.0000000,0.0000000,0.0000000,0.0071686,0.0000000,0.0000000,0.0019818,0.0000000,0.0000000,0.0000000,0.0071686,0.0000000,0.0000000,0.0019818
38.0290680,1.1997001,,-0.9989696,-0.0453260,-0.0007313,0.0022146,0.0082261,0.0032022,-0.0048724,,,,0.3680912,-7.2147741,-21.3936939,0.0000000,0.0000000,0.0000000,0.0239940,0.0521745,0.0000000,0.0000000,0.0072162,0.0000000,0.0000000,0.0000000,0.0521745,0.0000000,0.0000000,0.0072162,0.0000000,0.0000000,0.0000000,0.0521745,0.0000000,0.0000000,0.0072162,0.0072162,0.0000000,0.0000000,0.0019883,0.0000000,0.0000000,0.0000000,0.0072162,0.0000000,0.0000000,0.0019883,0.0000000,0.0000000,0.0000000,0.0072162,0.0000000,0.0000000,0.0019883
38.0501800,1.0000501,,-0.9989696,-0.0453261,-0.0007458,0.0021985,0.0086296,0.0066823,-0.0024362,,,,0.3680912,-7.2147741,-21.3936939,0.0000000,0.0000000,0.0000000,0.0200010,0.0524632,0.0000000,0.0000000,0.0072561,0.0000000,0.0000000,0.0000000,0.0524632,0.0000000,0.0000000,0.0072561,0.0000000,0.0000000,0.0000000,0.0524632,0.0000000,0.0000000,0.0072561,0.0072561,0.0000000,0.0000000,0.0019938,0.0000000,0.0000000,0.0000000,0.0072561,0.0000000,0.0000000,0.0019938,0.0000000,0.0000000,0.0000000,0.0072561,0.0000000,0.0000000,0.0019938
38.0689300,0.9999500,,-0.9989696,-0.0453261,-0.0007755,0.0021828,0.0070767,0.0003428,0.0007350,,,,0.3680912,-7.2147741,-21.3936939,0.0000000,0.0000000,0.0000000,0.0199990,0.0527534,0.0000000,0.0000000,0.0072960,0.0000000,0.0000000,0.0000000,0.0527534,0.0000000,0.0000000,0.0072960,0.0000000,0.0000000,0.0000000,0.0527534,0.0000000,0.0000000,0.0072960,0.0072960,0.0000000,0.0000000,0.0019993,0.0000000,0.0000000,0.0000000,0.0072960,0.0000000,0.0000000,0.0019993,0.0000000,0.0000000,0.0000000,0.0072960,0.0000000,0.0000000,0.0019993
38.0902490,,1.0100000,-0.9989696,-0.0453262,-0.0007771,0.0021639,,,,0.0000000,0.0000000,0.0000000,0.3680912,-7.2147741,-21.3936939,0.0000000,0.0000000,0.0000000,0.1010000,0.0513119,0.0000000,0.0000000,0.0070966,0.0000000,0.0000000,0.0000000,0.0513119,0.0000000,0.0000000,0.0070966,0.0000000,0.0000000,0.0000000,0.0513119,0.0000000,0.0000000,0.0070966,0.0070966,0.0000000,0.0000000,0.0019718,0.0000000,0.0000000,0.0000000,0.0070966,0.0000000,0.0000000,0.0019718,0.0000000,0.0000000,0.0000000,0.0070966,0.0000000,0.0000000,0.0019718
38.1037330,1.0000000,,-0.9989696,-0.0453262,-0.0007771,0.0021639,-0.0019701,-0.0025981,-0.0064684,,,,0.3680912,-7.2147741,-21.3936939,0.0000000,0.0000000,0.0000000,0.0200000,0.0515957,0.0000000,0.0000000,0.0071361,0.0000000,0.0000000,0.0000000,0.0515957,0.0000000,0.0000000,0.0071361,0.0000000,0.0000000,0.0000000,0.0515957,0.0000000,0.0000000,0.0071361,0.0071361,0.0000000,0.0000000,0.0019772,0.0000000,0.0000000,0.0000000,0.0071361,0.0000000,0.0000000,0.0019772,0.0000000,0.0000000,0.0000000,0.0071361,0.0000000,0.0000000,0.0019772
38.1168130,1.4005001,,-0.9989696,-0.0453262,-0.0007734,0.0021553,-0.0008706,0.0020350,-0.0012811,,,,0.3680912,-7.2147741,-21.3936939,0.0000000,0.0000000,0.0000000,0.0280100,0.0519955,0.0000000,0.0000000,0.0071916,0.0000000,0.0000000,0.0000000,0.0519955,0.0000000,0.0000000,0.0071916,0.0000000,0.0000000,0.0000000,0.0519955,0.0000000,0.0000000,0.0071916,0.0071916,0.0000000,0.0000000,0.0019849,0.0000000,0.0000000,0.0000000,0.0071916,0.0000000,0.0000000,0.0019849,0.0000000,0.0000000,0.0000000,0.0071916,0.0000000,0.0000000,0.0019849
38.1370480,0.9999000,,-0.9989696,-0.0453262,-0.0007839,0.0021704,-0.0003437,0.0041456,-0.0006405,,,,0.3680912,-7.2147741,-21.3936939,0.0000000,0.0000000,0.0000000,0.0199980,0.0522831,0.0000000,0.0000000,0.0072313,0.0000000,0.0000000,0.0000000,0.0522831,0.0000000,0.0000000,0.0072313,0.0000000,0.0000000,0.0000000,0.0522831,0.0000000,0.0000000,0.0072313,0.0072313,0.0000000,0.0000000,0.0019904,0.0000000,0.0000000,0.0000000,0.0072313,0.0000000,0.0000000,0.0019904,0.0000000,0.0000000,0.0000000,0.0072313,0.0000000,0.0000000,0.0019904
38.1585680,0.9999500,,-0.9989696,-0.0453262,-0.0008018,0.0021535,-0.0008433,0.0066123,0.0001680,,,,0.3680912,-7.2147741,-21.3936939,0.0000000,0.0000000,0.0000000,0.0199990,0.0525724,0.0000000,0.0000000,0.0072712,0.0000000,0.0000000,0.0000000,0.0525724,0.0000000,0.0000000,0.0072712,0.0000000,0.0000000,0.0000000,0.0525724,0.0000000,0.0000000,0.0072712,0.0072712,0.0000000,0.0000000,0.0019959,0.0000000,0.0000000,0.0000000,0.0072712,0.0000000,0.0000000,0.0019959,0.0000000,0.0000000,0.0000000,0.0072712,0.0000000,0.0000000,0.0019959
38.1792930,1.0496501,,-0.9989696,-0.0453262,-0.0007962,0.0021660,-0.0027715,0.0000789,0.0059434,,,,0.3680912,-7.2147741,-21.3936939,0.0000000,0.0000000,0.0000000,0.0209930,0.0528777,0.0000000,0.0000000,0.0073131,0.0000000,0.0000000,0.0000000,0.0528777,0.0000000,0.0000000,0.0073131,0.0000000,0.0000000,0.0000000,0.0528777,0.0000000,0.0000000,0.0073131,0.0073131,0.0000000,0.0000000,0.0020017,0.0000000,0.0000000,0.0000000,0.0073131,0.0000000,0.0000000,0.0020017,0.0000000,0.0000000,0.0000000,0.0073131,0.0000000,0.0000000,0.0020017
38.1947500,,0.9999500,-0.9989696,-0.0453262,-0.0007962,0.0021656,,,,0.0000000,0.0000000,0.0000000,0.3680912,-7.2147741,-21.3936939,0.0000000,0.0000000,0.0000000,0.0999950,0.0514294,0.0000000,0.0000000,0.0071128,0.0000000,0.0000000,0.0000000,0.0514294,0.0000000,0.0000000,0.0071128,0.0000000,0.0000000,0.0000000,0.0514294,0.0000000,0.0000000,0.0071128,0.0071128,0.0000000,0.0000000,0.0019740,0.0000000,0.0000000,0.0000000,0.0071128,0.0000000,0.0000000,0.0019740,0.0000000,0.0000000,0.0000000,0.0071128,0.0000000,0.0000000,0.0019740
38.2086670,1.0001501,,-0.9989696,-0.0453262,-0.0007907,0.0021656,-0.0039721,0.0036329,-0.0011787,,,,0.3680912,-7.2147741,-21.3936939,0.0000000,0.0000000,0.0000000,0.0200030,0.0517140,0.0000000,0.0000000,0.0071524,0.0000000,0.0000000,0.0000000,0.0517140,0.0000000,0.0000000,0.0071524,0.0000000,0.0000000,0.0000000,0.0517140,0.0000000,0.0000000,0.0071524,0.0071524,0.0000000,0.0000000,0.0019795,0.0000000,0.0000000,0.0000000,0.0071524,0.0000000,0.0000000,0.0019795,0.0000000,0.0000000,0.0000000,0.0071524,0.0000000,0.0000000,0.0019795
38.2218110,1.1998500,,-0.9989696,-0.0453262,-0.0007858,0.0021445,-0.0001703,0.0043952,0.0008755,,,,0.3680912,-7.2147741,-21.3936939,0.0000000,0.0000000,0.0000000,0.0239970,0.0520572,0.0000000,0.0000000,0.0071999,0.0000000,0.0000000,0.0000000,0.0520572,0.0000000,0.0000000,0.0071999,0.0000000,0.0000000,0.0000000,0.0520572,0.0000000,0.0000000,0.0071999,0.0071999,0.0000000,0.0000000,0.0019860,0.0000000,0.0000000,0.0000000,0.0071999,0.0000000,0.0000000,0.0019860,0.0000000,0.0000000,0.0000000,0.0071999,0.0000000,0.0000000,0.0019860
38.2428710,1.0501001,,-0.9989697,-0.0453263,-0.0007994,0.0021066,0.0046298,0.0037464,0.0040999,,,,0.3680912,-7.2147741,-21.3936939,0.0000000,0.0000000,0.0000000,0.0210020,0.0523597,0.0000000,0.0000000,0.0072417,0.0000000,0.0000000,0.0000000,0.0523597,0.0000000,0.0000000,0.0072417,0.0000000,0.0000000,0.0000000,0.0523597,0.0000000,0.0000000,0.0072417,0.0072417,0.0000000,0.0000000,0.0019918,0.0000000,0.0000000,0.0000000,0.0072417,0.0000000,0.0000000,0.0019918,0.0000000,0.0000000,0.0000000,0.0072417,0.0000000,0.0000000,0.0019918
38.2638800,1.0500000,,-0.9989698,-0.0453263,-0.0007838,0.0020798,0.0024370,0.0048715,0.0059562,,,,0.3680912,-7.2147741,-21.3936939,0.0000000,0.0000000,0.0000000,0.0210000,0.0526638,0.0000000,0.0000000,0.0072836,0.0000000,0.0000000,0.0000000,0.0526638,0.0000000,0.0000000,0.0072836,0.0000000,0.0000000,0.0000000,0.0526638,0.0000000,0.0000000,0.0072836,0.0072836,0.0000000,0.0000000,0.0019976,0.0000000,0.0000000,0.0000000,0.0072836,0.0000000,0.0000000,0.0019976,0.0000000,0.0000000,0.0000000,0.0072836,0.0000000,0.0000000,0.0019976
38.2850380,1.0501001,,-0.9989698,-0.0453262,-0.0007519,0.0020658,-0.0078910,-0.0016460,0.0027339,,,,0.3680912,-7.2147741,-21.3936939,0.0000000,0.0000000,0.0000000,0.0210020,0.0529697,0.0000000,0.0000000,0.0073256,0.0000000,0.0000000,0.0000000,0.0529697,0.0000000,0.0000000,0.0073256,0.0000000,0.0000000,0.0000000,0.0529697,0.0000000,0.0000000,0.0073256,0.0073256,0.0000000,0.0000000,0.0020033,0.0000000,0.0000000,0.0000000,0.0073256,0.0000000,0.0000000,0.0020033,0.0000000,0.0000000,0.0000000,0.0073256,0.0000000,0.0000000,0.0020033
38.3009610,,1.0000600,-0.9989698,-0.0453262,-0.0007519,0.0020658,,,,0.0000000,0.0000000,0.0000000,0.3680912,-7.2147741,-21.3936939,0.0000000,0.0000000,0.0000000,0.1000060,0.0515165,0.0000000,0.0000000,0.0071246,0.0000000,0.0000000,0.0000000,0.0515165,0.0000000,0.0000000,0.0071246,0.0000000,0.0000000,0.0000000,0.0515165,0.0000000,0.0000000,0.0071246,0.0071246,0.0000000,0.0000000,0.0019755,0.0000000,0.0000000,0.0000000,0.0071246,0.0000000,0.0000000,0.0019755,0.0000000,0.0000000,0.0000000,0.0071246,0.0000000,0.0000000,0.0019755
38.3147660,1.1003000,,-0.9989698,-0.0453262,-0.0007473,0.0020610,0.0018147,-0.0071020,-0.0003420,,,,0.3680912,-7.2147741,-21.3936939,0.0000000,0.0000000,0.0000000,0.0220060,0.0518301,0.0000000,0.0000000,0.0071682,0.0000000,0.0000000,0.0000000,0.0518301,0.0000000,0.0000000,0.0071682,0.0000000,0.0000000,0.0000000,0.0518301,0.0000000,0.0000000,0.0071682,0.0071682,0.0000000,0.0000000,0.0019816,0.0000000,0.0000000,0.0000000,0.0071682,0.0000000,0.0000000,0.0019816,0.0000000,0.0000000,0.0000000,0.0071682,0.0000000,0.0000000,0.0019816
38.3280570,1.0500500,,-0.9989698,-0.0453262,-0.0007500,0.0020719,-0.0009085,-0.0076022,0.0015380,,,,0.3680912,-7.2147741,-21.3936939,0.0000000,0.0000000,0.0000000,0.0210010,0.0521311,0.0000000,0.0000000,0.0072098,0.0000000,0.0000000,0.0000000,0.0521311,0.0000000,0.0000000,0.0072098,0.0000000,0.0000000,0.0000000,0.0521311,0.0000000,0.0000000,0.0072098,0.0072098,0.0000000,0.0000000,0.0019873,0.0000000,0.0000000,0.0000000,0.0072098,0.0000000,0.0000000,0.0019873,0.0000000,0.0000000,0.0000000,0.0072098,0.0000000,0.0000000,0.0019873
38.3478260,0.9994500,,-0.9989699,-0.0453262,-0.0007477,0.0020519,-0.0049479,-0.0061967,-0.0006959,,,,0.3680912,-7.2147741,-21.3936939,0.0000000,0.0000000,0.0000000,0.0199890,0.0524194,0.0000000,0.0000000,0.0072496,0.0000000,0.0000000,0.0000000,0.0524194,0.0000000,0.0000000,0.0072496,0.0000000,0.0000000,0.0000000,0.0524194,0.0000000,0.0000000,0.0072496,0.0072496,0.0000000,0.0000000,0.0019928,0.0000000,0.0000000,0.0000000,0.0072496,0.0000000,0.0000000,0.0019928,0.0000000,0.0000000,0.0000000,0.0072496,0.0000000,0.0000000,0.0019928
38.3677740,1.0002501,,-0.9989700,-0.0453262,-0.0007103,0.0020075,-0.0093328,-0.0006722,0.0033142,,,,0.3680912,-7.2147741,-21.3936939,0.0000000,0.0000000,0.0000000,0.0200050,0.0527094,0.0000000,0.0000000,0.0072895,0.0000000,0.0000000,0.0000000,0.0527094,0.0000000,0.0000000,0.0072895,0.0000000,0.0000000,0.0000000,0.0527094,0.0000000,0.0000000,0.0072895,0.0072895,0.0000000,0.0000000,0.0019983,0.0000000,0.0000000,0.0000000,0.0072895,0.0000000,0.0000000,0.0019983,0.0000000,0.0000000,0.0000000,0.0072895,0.0000000,0.0000000,0.0019983
38.3888670,,0.9999600,-0.9989700,-0.0453262,-0.0006971,0.0019891,,,,0.0000000,0.0000000,0.0000000,0.3680912,-7.2147741,-21.3936939,0.0000000,0.0000000,0.0000000,0.0999960,0.0512702,0.0000000,0.0000000,0.0070905,0.0000000,0.0000000,0.0000000,0.0512702,0.0000000,0.0000000,0.0070905,0.0000000,0.0000000,0.0000000,0.0512702,0.0000000,0.0000000,0.0070905,0.0070905,0.0000000,0.0000000,0.0019708,0.0000000,0.0000000,0.0000000,0.0070905,0.0000000,0.0000000,0.0019708,0.0000000,0.0000000,0.0000000,0.0070905,0.0000000,0.0000000,0.0019708
38.4019000,1.0001501,,-0.9989700,-0.0453262,-0.0006971,0.0019891,-0.0066577,0.0006252,0.0072723,,,,0.3680912,-7.2147741,-21.3936939,0.0000000,0.0000000,0.0000000,0.0200030,0.0515539,0.0000000,0.0000000,0.0071300,0.0000000,0.0000000,0.0000000,0.0515539,0.0000000,0.0000000,0.0071300,0.0000000,0.0000000,0.0000000,0.0515539,0.0000000,0.0000000,0.0071300,0.0071300,0.0000000,0.0000000,0.0019763,0.0000000,0.0000000,0.0000000,0.0071300,0.0000000,0.0000000,0.0019763,0.0000000,0.0000000,0.0000000,0.0071300,0.0000000,0.0000000,0.0019763
38.4162650,1.3496001,,-0.9989700,-0.0453262,-0.0006859,0.0019922,-0.0045801,0.0015486,0.0004623,,,,0.3680912,-7.2147741,-21.3936939,0.0000000,0.0000000,0.0000000,0.0269920,0.0519388,0.0000000,0.0000000,0.0071834,0.0000000,0.0000000,0.0000000,0.0519388,0.0000000,0.0000000,0.0071834,0.0000000,0.0000000,0.0000000,0.0519388,0.0000000,0.0000000,0.0071834,0.0071834,0.0000000,0.0000000,0.0019837,0.0000000,0.0000000,0.0000000,0.0071834,0.0000000,0.0000000,0.0019837,0.0000000,0.0000000,0.0000000,0.0071834,0.0000000,0.0000000,0.0019837
38.4348930,1.0000000,,-0.9989700,-0.0453262,-0.0006934,0.0019800,-0.0050290,0.0027121,-0.0024544,,,,0.3680912,-7.2147741,-21.3936939,0.0000000,0.0000000,0.0000000,0.0200000,0.0522261,0.0000000,0.0000000,0.0072231,0.0000000,0.0000000,0.0000000,0.0522261,0.0000000,0.0000000,0.0072231,0.0000000,0.0000000,0.0000000,0.0522261,0.0000000,0.0000000,0.0072231,0.0072231,0.0000000,0.0000000,0.0019892,0.0000000,0.0000000,0.0000000,0.0072231,0.0000000,0.0000000,0.0019892,0.0000000,0.0000000,0.0000000,0.0072231,0.0000000,0.0000000,0.0019892
38.4548970,1.0005500,,-0.9989700,-0.0453262,-0.0006763,0.0019688,-0.0054518,0.0032863,-0.0012272,,,,0.3680912,-7.2147741,-21.3936939,0.0000000,0.0000000,0.0000000,0.0200110,0.0525152,0.0000000,0.0000000,0.0072630,0.0000000,0.0000000,0.0000000,0.0525152,0.0000000,0.0000000,0.0072630,0.0000000,0.0000000,0.0000000,0.0525152,0.0000000,0.0000000,0.0072630,0.0072630,0.0000000,0.0000000,0.0019947,0.0000000,0.0000000,0.0000000,0.0072630,0.0000000,0.0000000,0.0019947,0.0000000,0.0000000,0.0000000,0.0072630,0.0000000,0.0000000,0.0019947
38.4757250,1.0496501,,-0.9989701,-0.0453262,-0.0006710,0.0019493,0.0001885,0.0018339,-0.0028109,,,,0.3680912,-7.2147741,-21.3936939,0.0000000,0.0000000,0.0000000,0.0209930,0.0528202,0.0000000,0.0000000,0.0073049,0.0000000,0.0000000,0.0000000,0.0528202,0.0000000,0.0000000,0.0073049,0.0000000,0.0000000,0.0000000,0.0528202,0.0000000,0.0000000,0.0073049,0.0073049,0.0000000,0.0000000,0.0020004,0.0000000,0.0000000,0.0000000,0.0073049,0.0000000,0.0000000,0.0020004,0.0000000,0.0000000,0.0000000,0.0073049,0.0000000,0.0000000,0.0020004
38.4917980,,1.0166299,-0.9989701,-0.0453262,-0.0006710,0.0019493,,,,0.0000000,0.0000000,0.0000000,0.3680912,-7.2147741,-21.3936939,0.0000000,0.0000000,0.0000000,0.1016630,0.0513750,0.0000000,0.0000000,0.0071051,0.0000000,0.0000000,0.0000000,0.0513750,0.0000000,0.0000000,0.0071051,0.0000000,0.0000000,0.0000000,0.0513750,0.0000000,0.0000000,0.0071051,0.0071051,0.0000000,0.0000000,0.0019728,0.0000000,0.0000000,0.0000000,0.0071051,0.0000000,0.0000000,0.0019728,0.0000000,0.0000000,0.0000000,0.0071051,0.0000000,0.0000000,0.0019728
38.5055360,1.0999500,,-0.9989702,-0.0453262,-0.0006860,0.0019282,0.0002850,-0.0013566,-0.0021379,,,,0.3680912,-7.2147741,-21.3936939,0.0000000,0.0000000,0.0000000,0.0219990,0.0516876,0.0000000,0.0000000,0.0071485,0.0000000,0.0000000,0.0000000,0.0516876,0.0000000,0.0000000,0.0071485,0.0000000,0.0000000,0.0000000,0.0516876,0.0000000,0.0000000,0.0071485,0.0071485,0.0000000,0.0000000,0.0019788,0.0000000,0.0000000,0.0000000,0.0071485,0.0000000,0.0000000,0.0019788,0.0000000,0.0000000,0.0000000,0.0071485,0.0000000,0.0000000,0.0019788
38.5190080,1.0498999,,-0.9989702,-0.0453262,-0.0006823,0.0019216,-0.0030618,-0.0051415,0.0001518,,,,0.3680912,-7.2147741,-21.3936939,0.0000000,0.0000000,0.0000000,0.0209980,0.0519878,0.0000000,0.0000000,0.0071901,0.0000000,0.0000000,0.0000000,0.0519878,0.0000000,0.0000000,0.0071901,0.0000000,0.0000000,0.0000000,0.0519878,0.0000000,0.0000000,0.0071901,0.0071901,0.0000000,0.0000000,0.0019846,0.0000000,0.0000000,0.0000000,0.0071901,0.0000000,0.0000000,0.0019846,0.0000000,0.0000000,0.0000000,0.0071901,0.0000000,0.0000000,0.0019846
38.5389740,1.0003500,,-0.9989702,-0.0453262,-0.0006867,0.0019191,0.0013606,-0.0077664,-0.0052952,,,,0.3680912,-7.2147741,-21.3936939,0.0000000,0.0000000,0.0000000,0.0200070,0.0522755,0.0000000,0.0000000,0.0072299,0.0000000,0.0000000,0.0000000,0.0522755,0.0000000,0.0000000,0.0072299,0.0000000,0.0000000,0.0000000,0.0522755,0.0000000,0.0000000,0.0072299,0.0072299,0.0000000,0.0000000,0.0019901,0.0000000,0.0000000,0.0000000,0.0072299,0.0000000,0.0000000,0.0019901,0.0000000,0.0000000,0.0000000,0.0072299,0.0000000,0.0000000,0.0019901
38.5588530,1.0002999,,-0.9989702,-0.0453263,-0.0007051,0.0019136,0.0032896,-0.0056685,-0.0036242,,,,0.3680912,-7.2147741,-21.3936939,0.0000000,0.0000000,0.0000000,0.0200060,0.0525648,0.0000000,0.0000000,0.0072697,0.0000000,0.0000000,0.0000000,0.0525648,0.0000000,0.0000000,0.0072697,0.0000000,0.0000000,0.0000000,0.0525648,0.0000000,0.0000000,0.0072697,0.0072697,0.0000000,0.0000000,0.0019956,0.0000000,0.0000000,0.0000000,0.0072697,0.0000000,0.0000000,0.0019956,0.0000000,0.0000000,0.0000000,0.0072697,0.0000000,0.0000000,0.0019956
38.5799300,1.0493001,,-0.9989702,-0.0453263,-0.0007107,0.0019006,-0.0028184,0.0058556,0.0011176,,,,0.3680912,-7.2147741,-21.3936939,0.0000000,0.0000000,0.0000000,0.0209860,0.0528699,0.0000000,0.0000000,0.0073117,0.0000000,0.0000000,0.0000000,0.0528699,0.0000000,0.0000000,0.0073117,0.0000000,0.0000000,0.0000000,0.0528699,0.0000000,0.0000000,0.0073117,0.0073117,0.0000000,0.0000000,0.0020013,0.0000000,0.0000000,0.0000000,0.0073117,0.0000000,0.0000000,0.0020013,0.0000000,0.0000000,0.0000000,0.0073117,0.0000000,0.0000000,0.0020013
38.5959570,,1.0234100,-0.9989702,-0.0453263,-0.0007107,0.0019006,,,,0.0000000,0.0000000,0.0000000,0.3680912,-7.2147741,-21.3936939,0.0000000,0.0000000,0.0000000,0.1023410,0.0514221,0.0000000,0.0000000,0.0071115,0.0000000,0.0000000,0.0000000,0.0514221,0.0000000,0.0000000,0.0071115,0.0000000,0.0000000,0.0000000,0.0514221,0.0000000,0.0000000,0.0071115,0.0071115,0.0000000,0.0000000,0.0019736,0.0000000,0.0000000,0.0000000,0.0071115,0.0000000,0.0000000,0.0019736,0.0000000,0.0000000,0.0000000,0.0071115,0.0000000,0.0000000,0.0019736
38.6096560,1.1002001,,-0.9989702,-0.0453263,-0.0006947,0.0019115,-0.0011956,0.0016461,0.0008029,,,,0.3680912,-7.2147741,-21.3936939,0.0000000,0.0000000,0.0000000,0.0220040,0.0517351,0.0000000,0.0000000,0.0071549,0.0000000,0.0000000,0.0000000,0.0517351,0.0000000,0.0000000,0.0071549,0.0000000,0.0000000,0.0000000,0.0517351,0.0000000,0.0000000,0.0071549,0.0071549,0.0000000,0.0000000,0.0019797,0.0000000,0.0000000,0.0000000,0.0071549,0.0000000,0.0000000,0.0019797,0.0000000,0.0000000,0.0000000,0.0071549,0.0000000,0.0000000,0.0019797
38.6230210,1.0498000,,-0.9989702,-0.0453263,-0.0006991,0.0019023,0.0000812,0.0073233,0.0055284,,,,0.3680912,-7.2147741,-21.3936939,0.0000000,0.0000000,0.0000000,0.0209960,0.0520355,0.0000000,0.0000000,0.0071966,0.0000000,0.0000000,0.0000000,0.0520355,0.0000000,0.0000000,0.0071966,0.0000000,0.0000000,0.0000000,0.0520355,0.0000000,0.0000000,0.0071966,0.0071966,0.0000000,0.0000000,0.0019854,0.0000000,0.0000000,0.0000000,0.0071966,0.0000000,0.0000000,0.0019854,0.0000000,0.0000000,0.0000000,0.0071966,0.0000000,0.0000000,0.0019854
38.6442300,1.0000000,,-0.9989702,-0.0453263,-0.0006912,0.0019081,0.0002542,0.0031047,0.0069146,,,,0.3680912,-7.2147741,-21.3936939,0.0000000,0.0000000,0.0000000,0.0200000,0.0523234,0.0000000,0.0000000,0.0072363,0.0000000,0.0000000,0.0000000,0.0523234,0.0000000,0.0000000,0.0072363,0.0000000,0.0000000,0.0000000,0.0523234,0.0000000,0.0000000,0.0072363,0.0072363,0.0000000,0.0000000,0.0019909,0.0000000,0.0000000,0.0000000,0.0072363,0.0000000,0.0000000,0.0019909,0.0000000,0.0000000,0.0000000,0.0072363,0.0000000,0.0000000,0.0019909
38.6630020,1.0003500,,-0.9989702,-0.0453262,-0.0006673,0.0019299,0.0025762,0.0042074,-0.0026462,,,,0.3680912,-7.2147741,-21.3936939,0.0000000,0.0000000,0.0000000,0.0200070,0.0526129,0.0000000,0.0000000,0.0072762,0.0000000,0.0000000,0.0000000,0.0526129,0.0000000,0.0000000,0.0072762,0.0000000,0.0000000,0.0000000,0.0526129,0.0000000,0.0000000,0.0072762,0.0072762,0.0000000,0.0000000,0.0019964,0.0000000,0.0000000,0.0000000,0.0072762,0.0000000,0.0000000,0.0019964,0.0000000,0.0000000,0.0000000,0.0072762,0.0000000,0.0000000,0.0019964
38.6828100,1.0002999,,-0.9989702,-0.0453262,-0.0006422,0.0019244,-0.0038084,-0.0018636,-0.0032762,,,,0.3680912,-7.2147741,-21.3936939,0.0000000,0.0000000,0.0000000,0.0200060,0.0529041,0.0000000,0.0000000,0.0073162,0.0000000,0.0000000,0.0000000,0.0529041,0.0000000,0.0000000,0.0073162,0.0000000,0.0000000,0.0000000,0.0529041,0.0000000,0.0000000,0.0073162,0.0073162,0.0000000,0.0000000,0.0020019,0.0000000,0.0000000,0.0000000,0.0073162,0.0000000,0.0000000,0.0020019,0.0000000,0.0000000,0.0000000,0.0073162,0.0000000,0.0000000,0.0020019
38.7003170,,0.9999400,-0.9989702,-0.0453262,-0.0006422,0.0019244,,,,0.0000000,0.0000000,0.0000000,0.3680912,-7.2147741,-21.3936939,0.0000000,0.0000000,0.0000000,0.0999940,0.0514544,0.0000000,0.0000000,0.0071157,0.0000000,0.0000000,0.0000000,0.0514544,0.0000000,0.0000000,0.0071157,0.0000000,0.0000000,0.0000000,0.0514544,0.0000000,0.0000000,0.0071157,0.0071157,0.0000000,0.0000000,0.0019742,0.0000000,0.0000000,0.0000000,0.0071157,0.0000000,0.0000000,0.0019742,0.0000000,0.0000000,0.0000000,0.0071157,0.0000000,0.0000000,0.0019742
38.7136700,0.9999000,,-0.9989702,-0.0453261,-0.0006334,0.0019255,-0.0021254,-0.0051356,-0.0033471,,,,0.3680912,-7.2147741,-21.3936939,0.0000000,0.0000000,0.0000000,0.0199980,0.0517390,0.0000000,0.0000000,0.0071553,0.0000000,0.0000000,0.0000000,0.0517390,0.0000000,0.0000000,0.0071553,0.0000000,0.0000000,0.0000000,0.0517390,0.0000000,0.0000000,0.0071553,0.0071553,0.0000000,0.0000000,0.0019797,0.0000000,0.0000000,0.0000000,0.0071553,0.0000000,0.0000000,0.0019797,0.0000000,0.0000000,0.0000000,0.0071553,0.0000000,0.0000000,0.0019797
38.7269710,1.1995500,,-0.9989702,-0.0453261,-0.0006298,0.0019352,-0.0015281,0.0010562,-0.0053357,,,,0.3680912,-7.2147741,-21.3936939,0.0000000,0.0000000,0.0000000,0.0239910,0.0520823,0.0000000,0.0000000,0.0072028,0.0000000,0.0000000,0.0000000,0.0520823,0.0000000,0.0000000,0.0072028,0.0000000,0.0000000,0.0000000,0.0520823,0.0000000,0.0000000,0.0072028,0.0072028,0.0000000,0.0000000,0.0019862,0.0000000,0.0000000,0.0000000,0.0072028,0.0000000,0.0000000,0.0019862,0.0000000,0.0000000,0.0000000,0.0072028,0.0000000,0.0000000,0.0019862
38.7468960,1.0001501,,-0.9989702,-0.0453262,-0.0006509,0.0019324,-0.0029842,-0.0012343,0.0002619,,,,0.3680912,-7.2147741,-21.3936939,0.0000000,0.0000000,0.0000000,0.0200030,0.0523704,0.0000000,0.0000000,0.0072426,0.0000000,0.0000000,0.0000000,0.0523704,0.0000000,0.0000000,0.0072426,0.0000000,0.0000000,0.0000000,0.0523704,0.0000000,0.0000000,0.0072426,0.0072426,0.0000000,0.0000000,0.0019917,0.0000000,0.0000000,0.0000000,0.0072426,0.0000000,0.0000000,0.0019917,0.0000000,0.0000000,0.0000000,0.0072426,0.0000000,0.0000000,0.0019917
38.7670670,0.9999000,,-0.9989701,-0.0453262,-0.0006693,0.0019553,0.0009112,-0.0045310,0.0013516,,,,0.3680912,-7.2147741,-21.3936939,0.0000000,0.0000000,0.0000000,0.0199980,0.0526601,0.0000000,0.0000000,0.0072825,0.0000000,0.0000000,0.0000000,0.0526601,0.0000000,0.0000000,0.0072825,0.0000000,0.0000000,0.0000000,0.0526601,0.0000000,0.0000000,0.0072825,0.0072825,0.0000000,0.0000000,0.0019972,0.0000000,0.0000000,0.0000000,0.0072825,0.0000000,0.0000000,0.0019972,0.0000000,0.0000000,0.0000000,0.0072825,0.0000000,0.0000000,0.0019972
38.7867980,1.0003999,,-0.9989700,-0.0453262,-0.0006797,0.0019657,0.0008981,0.0001683,0.0009200,,,,0.3680912,-7.2147741,-21.3936939,0.0000000,0.0000000,0.0000000,0.0200080,0.0529515,0.0000000,0.0000000,0.0073225,0.0000000,0.0000000,0.0000000,0.0529515,0.0000000,0.0000000,0.0073225,0.0000000,0.0000000,0.0000000,0.0529515,0.0000000,0.0000000,0.0073225,0.0073225,0.0000000,0.0000000,0.0020027,0.0000000,0.0000000,0.0000000,0.0073225,0.0000000,0.0000000,0.0020027,0.0000000,0.0000000,0.0000000,0.0073225,0.0000000,0.0000000,0.0020027
38.8029620,,1.0200000,-0.9989700,-0.0453262,-0.0006797,0.0019657,,,,0.0000000,0.0000000,0.0000000,0.3680912,-7.2147741,-21.3936939,0.0000000,0.0000000,0.0000000,0.1020000,0.0514993,0.0000000,0.0000000,0.0071217,0.0000000,0.0000000,0.0000000,0.0514993,0.0000000,0.0000000,0.0071217,0.0000000,0.0000000,0.0000000,0.0514993,0.0000000,0.0000000,0.0071217,0.0071217,0.0000000,0.0000000,0.0019749,0.0000000,0.0000000,0.0000000,0.0071217,0.0000000,0.0000000,0.0019749,0.0000000,0.0000000,0.0000000,0.0071217,0.0000000,0.0000000,0.0019749
38.8166460,1.0995500,,-0.9989700,-0.0453262,-0.0006780,0.0020095,-0.0029994,0.0001528,0.0021690,,,,0.3680912,-7.2147741,-21.3936939,0.0000000,0.0000000,0.0000000,0.0219910,0.0518125,0.0000000,0.0000000,0.0071652,0.0000000,0.0000000,0.0000000,0.0518125,0.0000000,0.0000000,0.0071652,0.0000000,0.0000000,0.0000000,0.0518125,0.0000000,0.0000000,0.0071652,0.0071652,0.0000000,0.0000000,0.0019810,0.0000000,0.0000000,0.0000000,0.0071652,0.0000000,0.0000000,0.0019810,0.0000000,0.0000000,0.0000000,0.0071652,0.0000000,0.0000000,0.0019810
38.8299920,1.0498999,,-0.9989699,-0.0453262,-0.0006828,0.0020594,-0.0032545,-0.0088271,-0.0047749,,,,0.3680912,-7.2147741,-21.3936939,0.0000000,0.0000000,0.0000000,0.0209980,0.0521134,0.0000000,0.0000000,0.0072068,0.0000000,0.0000000,0.0000000,0.0521134,0.0000000,0.0000000,0.0072068,0.0000000,0.0000000,0.0000000,0.0521134,0.0000000,0.0000000,0.0072068,0.0072068,0.0000000,0.0000000,0.0019867,0.0000000,0.0000000,0.0000000,0.0072068,0.0000000,0.0000000,0.0019867,0.0000000,0.0000000,0.0000000,0.0072068,0.0000000,0.0000000,0.0019867
38.8499920,1.0000501,,-0.9989698,-0.0453262,-0.0007067,0.0020857,-0.0009864,-0.0055046,-0.0048289,,,,0.3680912,-7.2147741,-21.3936939,0.0000000,0.0000000,0.0000000,0.0200010,0.0524017,0.0000000,0.0000000,0.0072466,0.0000000,0.0000000,0.0000000,0.0524017,0.0000000,0.0000000,0.0072466,0.0000000,0.0000000,0.0000000,0.0524017,0.0000000,0.0000000,0.0072466,0.0072466,0.0000000,0.0000000,0.0019922,0.0000000,0.0000000,0.0000000,0.0072466,0.0000000,0.0000000,0.0019922,0.0000000,0.0000000,0.0000000,0.0072466,0.0000000,0.0000000,0.0019922
38.8699270,1.0005001,,-0.9989697,-0.0453262,-0.0007357,0.0021219,-0.0008594,-0.0091686,-0.0048558,,,,0.3680912,-7.2147741,-21.3936939,0.0000000,0.0000000,0.0000000,0.0200100,0.0526917,0.0000000,0.0000000,0.0072865,0.0000000,0.0000000,0.0000000,0.0526917,0.0000000,0.0000000,0.0072865,0.0000000,0.0000000,0.0000000,0.0526917,0.0000000,0.0000000,0.0072865,0.0072865,0.0000000,0.0000000,0.0019977,0.0000000,0.0000000,0.0000000,0.0072865,0.0000000,0.0000000,0.0019977,0.0000000,0.0000000,0.0000000,0.0072865,0.0000000,0.0000000,0.0019977
38.8900290,0.9998500,,-0.9989696,-0.0453263,-0.0007661,0.0021521,0.0003866,-0.0097647,-0.0058459,,,,0.3680912,-7.2147741,-21.3936939,0.0000000,0.0000000,0.0000000,0.0199970,0.0529831,0.0000000,0.0000000,0.0073265,0.0000000,0.0000000,0.0000000,0.0529831,0.0000000,0.0000000,0.0073265,0.0000000,0.0000000,0.0000000,0.0529831,0.0000000,0.0000000,0.0073265,0.0073265,0.0000000,0.0000000,0.0020032,0.0000000,0.0000000,0.0000000,0.0073265,0.0000000,0.0000000,0.0020032,0.0000000,0.0000000,0.0000000,0.0073265,0.0000000,0.0000000,0.0020032
38.9073580,,1.0200399,-0.9989696,-0.0453263,-0.0007661,0.0021521,,,,0.0000000,0.0000000,0.0000000,0.3680912,-7.2147741,-21.3936939,0.0000000,0.0000000,0.0000000,0.1020040,0.0515292,0.0000000,0.0000000,0.0071255,0.0000000,0.0000000,0.0000000,0.0515292,0.0000000,0.0000000,0.0071255,0.0000000,0.0000000,0.0000000,0.0515292,0.0000000,0.0000000,0.0071255,0.0071255,0.0000000,0.0000000,0.0019754,0.0000000,0.0000000,0.0000000,0.0071255,0.0000000,0.0000000,0.0019754,0.0000000,0.0000000,0.0000000,0.0071255,0.0000000,0.0000000,0.0019754
38.9208010,1.0997500,,-0.9989696,-0.0453263,-0.0007991,0.0021463,0.0056178,0.0008855,0.0000067,,,,0.3680912,-7.2147741,-21.3936939,0.0000000,0.0000000,0.0000000,0.0219950,0.0518426,0.0000000,0.0000000,0.0071690,0.0000000,0.0000000,0.0000000,0.0518426,0.0000000,0.0000000,0.0071690,0.0000000,0.0000000,0.0000000,0.0518426,0.0000000,0.0000000,0.0071690,0.0071690,0.0000000,0.0000000,0.0019814,0.0000000,0.0000000,0.0000000,0.0071690,0.0000000,0.0000000,0.0019814,0.0000000,0.0000000,0.0000000,0.0071690,0.0000000,0.0000000,0.0019814
38.9338490,1.0998499,,-0.9989696,-0.0453264,-0.0008202,0.0021536,0.0087141,-0.0015867,0.0014682,,,,0.3680912,-7.2147741,-21.3936939,0.0000000,0.0000000,0.0000000,0.0219970,0.0521580,0.0000000,0.0000000,0.0072126,0.0000000,0.0000000,0.0000000,0.0521580,0.0000000,0.0000000,0.0072126,0.0000000,0.0000000,0.0000000,0.0521580,0.0000000,0.0000000,0.0072126,0.0072126,0.0000000,0.0000000,0.0019875,0.0000000,0.0000000,0.0000000,0.0072126,0.0000000,0.0000000,0.0019875,0.0000000,0.0000000,0.0000000,0.0072126,0.0000000,0.0000000,0.0019875
38.9553280,1.0000501,,-0.9989696,-0.0453264,-0.0008163,0.0021663,-0.0031427,0.0003740,-0.0019514,,,,0.3680912,-7.2147741,-21.3936939,0.0000000,0.0000000,0.0000000,0.0200010,0.0524465,0.0000000,0.0000000,0.0072524,0.0000000,0.0000000,0.0000000,0.0524465,0.0000000,0.0000000,0.0072524,0.0000000,0.0000000,0.0000000,0.0524465,0.0000000,0.0000000,0.0072524,0.0072524,0.0000000,0.0000000,0.0019930,0.0000000,0.0000000,0.0000000,0.0072524,0.0000000,0.0000000,0.0019930,0.0000000,0.0000000,0.0000000,0.0072524,0.0000000,0.0000000,0.0019930
38.9739980,0.9999500,,-0.9989696,-0.0453264,-0.0008277,0.0021713,-0.0020138,0.0018349,-0.0024406,,,,0.3680912,-7.2147741,-21.3936939,0.0000000,0.0000000,0.0000000,0.0199990,0.0527366,0.0000000,0.0000000,0.0072924,0.0000000,0.0000000,0.0000000,0.0527366,0.0000000,0.0000000,0.0072924,0.0000000,0.0000000,0.0000000,0.0527366,0.0000000,0.0000000,0.0072924,0.0072924,0.0000000,0.0000000,0.0019985,0.0000000,0.0000000,0.0000000,0.0072924,0.0000000,0.0000000,0.0019985,0.0000000,0.0000000,0.0000000,0.0072924,0.0000000,0.0000000,0.0019985
38.9935600,1.0003999,,-0.9989696,-0.0453264,-0.0008425,0.0021740,-0.0022047,-0.0015850,0.0012211,,,,0.3680912,-7.2147741,-21.3936939,0.0000000,0.0000000,0.0000000,0.0200080,0.0530284,0.0000000,0.0000000,0.0073324,0.0000000,0.0000000,0.0000000,0.0530284,0.0000000,0.0000000,0.0073324,0.0000000,0.0000000,0.0000000,0.0530284,0.0000000,0.0000000,0.0073324,0.0073324,0.0000000,0.0000000,0.0020039,0.0000000,0.0000000,0.0000000,0.0073324,0.0000000,0.0000000,0.0020039,0.0000000,0.0000000,0.0000000,0.0073324,0.0000000,0.0000000,0.0020039
39.0089250,,1.0000499,-0.9989696,-0.0453264,-0.0008425,0.0021740,,,,0.0000000,0.0000000,0.0000000,0.3680912,-7.2147741,-21.3936939,0.0000000,0.0000000,0.0000000,0.1000050,0.0515720,0.0000000,0.0000000,0.0071310,0.0000000,0.0000000,0.0000000,0.0515720,0.0000000,0.0000000,0.0071310,0.0000000,0.0000000,0.0000000,0.0515720,0.0000000,0.0000000,0.0071310,0.0071310,0.0000000,0.0000000,0.0019761,0.0000000,0.0000000,0.0000000,0.0071310,0.0000000,0.0000000,0.0019761,0.0000000,0.0000000,0.0000000,0.0071310,0.0000000,0.0000000,0.0019761
39.0225650,0.9996000,,-0.9989695,-0.0453264,-0.0008483,0.0021884,-0.0008277,-0.0064382,0.0006106,,,,0.3680912,-7.2147741,-21.3936939,0.0000000,0.0000000,0.0000000,0.0199920,0.0518571,0.0000000,0.0000000,0.0071706,0.0000000,0.0000000,0.0000000,0.0518571,0.0000000,0.0000000,0.0071706,0.0000000,0.0000000,0.0000000,0.0518571,0.0000000,0.0000000,0.0071706,0.0071706,0.0000000,0.0000000,0.0019816,0.0000000,0.0000000,0.0000000,0.0071706,0.0000000,0.0000000,0.0019816,0.0000000,0.0000000,0.0000000,0.0071706,0.0000000,0.0000000,0.0019816
39.0359340,1.1000000,,-0.9989695,-0.0453264,-0.0008473,0.0021842,0.0023098,-0.0027842,-0.0001830,,,,0.3680912,-7.2147741,-21.3936939,0.0000000,0.0000000,0.0000000,0.0220000,0.0521726,0.0000000,0.0000000,0.0072142,0.0000000,0.0000000,0.0000000,0.0521726,0.0000000,0.0000000,0.0072142,0.0000000,0.0000000,0.0000000,0.0521726,0.0000000,0.0000000,0.0072142,0.0072142,0.0000000,0.0000000,0.0019876,0.0000000,0.0000000,0.0000000,0.0072142,0.0000000,0.0000000,0.0019876,0.0000000,0.0000000,0.0000000,0.0072142,0.0000000,0.0000000,0.0019876
39.0560160,1.0001000,,-0.9989696,-0.0453264,-0.0008286,0.0021739,0.0041609,-0.0056112,-0.0005798,,,,0.3680912,-7.2147741,-21.3936939,0.0000000,0.0000000,0.0000000,0.0200020,0.0524612,0.0000000,0.0000000,0.0072540,0.0000000,0.0000000,0.0000000,0.0524612,0.0000000,0.0000000,0.0072540,0.0000000,0.0000000,0.0000000,0.0524612,0.0000000,0.0000000,0.0072540,0.0072540,0.0000000,0.0000000,0.0019931,0.0000000,0.0000000,0.0000000,0.0072540,0.0000000,0.0000000,0.0019931,0.0000000,0.0000000,0.0000000,0.0072540,0.0000000,0.0000000,0.0019931
39.0771910,1.0000000,,-0.9989696,-0.0453263,-0.0007954,0.0021709,0.0019584,-0.0001811,-0.0066375,,,,0.3680912,-7.2147741,-21.3936939,0.0000000,0.0000000,0.0000000,0.0200000,0.0527514,0.0000000,0.0000000,0.0072940,0.0000000,0.0000000,0.0000000,0.0527514,0.0000000,0.0000000,0.0072940,0.0000000,0.0000000,0.0000000,0.0527514,0.0000000,0.0000000,0.0072940,0.0072940,0.0000000,0.0000000,0.0019986,0.0000000,0.0000000,0.0000000,0.0072940,0.0000000,0.0000000,0.0019986,0.0000000,0.0000000,0.0000000,0.0072940,0.0000000,0.0000000,0.0019986
39.0968540,,0.9998900,-0.9989696,-0.0453263,-0.0007612,0.0021563,,,,0.0000000,0.0000000,0.0000000,0.3680912,-7.2147741,-21.3936939,0.0000000,0.0000000,0.0000000,0.0999890,0.0513099,0.0000000,0.0000000,0.0070946,0.0000000,0.0000000,0.0000000,0.0513099,0.0000000,0.0000000,0.0070946,0.0000000,0.0000000,0.0000000,0.0513099,0.0000000,0.0000000,0.0070946,0.0070946,0.0000000,0.0000000,0.0019710,0.0000000,0.0000000,0.0000000,0.0070946,0.0000000,0.0000000,0.0019710,0.0000000,0.0000000,0.0000000,0.0070946,0.0000000,0.0000000,0.0019710
39.1105770,0.9999000,,-0.9989696,-0.0453263,-0.0007612,0.0021563,0.0023601,-0.0009069,-0.0020981,,,,0.3680912,-7.2147741,-21.3936939,0.0000000,0.0000000,0.0000000,0.0199980,0.0515937,0.0000000,0.0000000,0.0071341,0.0000000,0.0000000,0.0000000,0.0515937,0.0000000,0.0000000,0.0071341,0.0000000,0.0000000,0.0000000,0.0515937,0.0000000,0.0000000,0.0071341,0.0071341,0.0000000,0.0000000,0.0019765,0.0000000,0.0000000,0.0000000,0.0071341,0.0000000,0.0000000,0.0019765,0.0000000,0.0000000,0.0000000,0.0071341,0.0000000,0.0000000,0.0019765
39.1238650,1.4000001,,-0.9989697,-0.0453263,-0.0007510,0.0021170,-0.0020930,-0.0023150,-0.0025139,,,,0.3680912,-7.2147741,-21.3936939,0.0000000,0.0000000,0.0000000,0.0280000,0.0519932,0.0000000,0.0000000,0.0071895,0.0000000,0.0000000,0.0000000,0.0519932,0.0000000,0.0000000,0.0071895,0.0000000,0.0000000,0.0000000,0.0519932,0.0000000,0.0000000,0.0071895,0.0071895,0.0000000,0.0000000,0.0019842,0.0000000,0.0000000,0.0000000,0.0071895,0.0000000,0.0000000,0.0019842,0.0000000,0.0000000,0.0000000,0.0071895,0.0000000,0.0000000,0.0019842
39.1439490,1.0000000,,-0.9989698,-0.0453264,-0.0007697,0.0020744,0.0017383,0.0040152,-0.0056515,,,,0.3680912,-7.2147741,-21.3936939,0.0000000,0.0000000,0.0000000,0.0200000,0.0522808,0.0000000,0.0000000,0.0072293,0.0000000,0.0000000,0.0000000,0.0522808,0.0000000,0.0000000,0.0072293,0.0000000,0.0000000,0.0000000,0.0522808,0.0000000,0.0000000,0.0072293,0.0072293,0.0000000,0.0000000,0.0019897,0.0000000,0.0000000,0.0000000,0.0072293,0.0000000,0.0000000,0.0019897,0.0000000,0.0000000,0.0000000,0.0072293,0.0000000,0.0000000,0.0019897
39.1637820,1.0008000,,-0.9989698,-0.0453264,-0.0007812,0.0020701,0.0004724,-0.0030430,-0.0013609,,,,0.3680912,-7.2147741,-21.3936939,0.0000000,0.0000000,0.0000000,0.0200160,0.0525702,0.0000000,0.0000000,0.0072692,0.0000000,0.0000000,0.0000000,0.0525702,0.0000000,0.0000000,0.0072692,0.0000000,0.0000000,0.0000000,0.0525702,0.0000000,0.0000000,0.0072692,0.0072692,0.0000000,0.0000000,0.0019952,0.0000000,0.0000000,0.0000000,0.0072692,0.0000000,0.0000000,0.0019952,0.0000000,0.0000000,0.0000000,0.0072692,0.0000000,0.0000000,0.0019952
39.1836030,0.9993000,,-0.9989698,-0.0453264,-0.0007845,0.0020505,-0.0050357,0.0026746,0.0051789,,,,0.3680912,-7.2147741,-21.3936939,0.0000000,0.0000000,0.0000000,0.0199860,0.0528608,0.0000000,0.0000000,0.0073091,0.0000000,0.0000000,0.0000000,0.0528608,0.0000000,0.0000000,0.0073091,0.0000000,0.0000000,0.0000000,0.0528608,0.0000000,0.0000000,0.0073091,0.0073091,0.0000000,0.0000000,0.0020007,0.0000000,0.0000000,0.0000000,0.0073091,0.0000000,0.0000000,0.0020007,0.0000000,0.0000000,0.0000000,0.0073091,0.0000000,0.0000000,0.0020007
39.1999680,,1.0152600,-0.9989698,-0.0453264,-0.0007845,0.0020505,,,,0.0000000,0.0000000,0.0000000,0.3680912,-7.2147741,-21.3936939,0.0000000,0.0000000,0.0000000,0.1015260,0.0514134,0.0000000,0.0000000,0.0071090,0.0000000,0.0000000,0.0000000,0.0514134,0.0000000,0.0000000,0.0071090,0.0000000,0.0000000,0.0000000,0.0514134,0.0000000,0.0000000,0.0071090,0.0071090,0.0000000,0.0000000,0.0019730,0.0000000,0.0000000,0.0000000,0.0071090,0.0000000,0.0000000,0.0019730,0.0000000,0.0000000,0.0000000,0.0071090,0.0000000,0.0000000,0.0019730
39.2137860,1.0001000,,-0.9989698,-0.0453264,-0.0007796,0.0020609,-0.0050890,0.0019095,0.0011246,,,,0.3680912,-7.2147741,-21.3936939,0.0000000,0.0000000,0.0000000,0.0200020,0.0516978,0.0000000,0.0000000,0.0071485,0.0000000,0.0000000,0.0000000,0.0516978,0.0000000,0.0000000,0.0071485,0.0000000,0.0000000,0.0000000,0.0516978,0.0000000,0.0000000,0.0071485,0.0071485,0.0000000,0.0000000,0.0019785,0.0000000,0.0000000,0.0000000,0.0071485,0.0000000,0.0000000,0.0019785,0.0000000,0.0000000,0.0000000,0.0071485,0.0000000,0.0000000,0.0019785
39.2270130,1.1497999,,-0.9989698,-0.0453263,-0.0007594,0.0020790,-0.0072823,-0.0016163,0.0005623,,,,0.3680912,-7.2147741,-21.3936939,0.0000000,0.0000000,0.0000000,0.0229960,0.0520266,0.0000000,0.0000000,0.0071940,0.0000000,0.0000000,0.0000000,0.0520266,0.0000000,0.0000000,0.0071940,0.0000000,0.0000000,0.0000000,0.0520266,0.0000000,0.0000000,0.0071940,0.0071940,0.0000000,0.0000000,0.0019848,0.0000000,0.0000000,0.0000000,0.0071940,0.0000000,0.0000000,0.0019848,0.0000000,0.0000000,0.0000000,0.0071940,0.0000000,0.0000000,0.0019848
39.2480510,1.0501500,,-0.9989698,-0.0453264,-0.0007695,0.0020705,-0.0008488,-0.0075678,0.0002812,,,,0.3680912,-7.2147741,-21.3936939,0.0000000,0.0000000,0.0000000,0.0210030,0.0523288,0.0000000,0.0000000,0.0072358,0.0000000,0.0000000,0.0000000,0.0523288,0.0000000,0.0000000,0.0072358,0.0000000,0.0000000,0.0000000,0.0523288,0.0000000,0.0000000,0.0072358,0.0072358,0.0000000,0.0000000,0.0019906,0.0000000,0.0000000,0.0000000,0.0072358,0.0000000,0.0000000,0.0019906,0.0000000,0.0000000,0.0000000,0.0072358,0.0000000,0.0000000,0.0019906
39.2692420,1.0000501,,-0.9989698,-0.0453264,-0.0007930,0.0020722,-0.0040178,-0.0078504,0.0011171,,,,0.3680912,-7.2147741,-21.3936939,0.0000000,0.0000000,0.0000000,0.0200010,0.0526182,0.0000000,0.0000000,0.0072757,0.0000000,0.0000000,0.0000000,0.0526182,0.0000000,0.0000000,0.0072757,0.0000000,0.0000000,0.0000000,0.0526182,0.0000000,0.0000000,0.0072757,0.0072757,0.0000000,0.0000000,0.0019961,0.0000000,0.0000000,0.0000000,0.0072757,0.0000000,0.0000000,0.0019961,0.0000000,0.0000000,0.0000000,0.0072757,0.0000000,0.0000000,0.0019961
39.2880860,0.9998500,,-0.9989698,-0.0453265,-0.0008034,0.0020404,-0.0024209,0.0034219,-0.0011504,,,,0.3680912,-7.2147741,-21.3936939,0.0000000,0.0000000,0.0000000,0.0199970,0.0529092,0.0000000,0.0000000,0.0073156,0.0000000,0.0000000,0.0000000,0.0529092,0.0000000,0.0000000,0.0073156,0.0000000,0.0000000,0.0000000,0.0529092,0.0000000,0.0000000,0.0073156,0.0073156,0.0000000,0.0000000,0.0020015,0.0000000,0.0000000,0.0000000,0.0073156,0.0000000,0.0000000,0.0020015,0.0000000,0.0000000,0.0000000,0.0073156,0.0000000,0.0000000,0.0020015
39.3029060,,1.0047599,-0.9989698,-0.0453265,-0.0008034,0.0020404,,,,0.0000000,0.0000000,0.0000000,0.3680912,-7.2147741,-21.3936939,0.0000000,0.0000000,0.0000000,0.1004760,0.0514592,0.0000000,0.0000000,0.0071151,0.0000000,0.0000000,0.0000000,0.0514592,0.0000000,0.0000000,0.0071151,0.0000000,0.0000000,0.0000000,0.0514592,0.0000000,0.0000000,0.0071151,0.0071151,0.0000000,0.0000000,0.0019738,0.0000000,0.0000000,0.0000000,0.0071151,0.0000000,0.0000000,0.0019738,0.0000000,0.0000000,0.0000000,0.0071151,0.0000000,0.0000000,0.0019738
39.3166520,1.0004500,,-0.9989699,-0.0453265,-0.0008055,0.0020231,-0.0072300,0.0058766,-0.0039932,,,,0.3680912,-7.2147741,-21.3936939,0.0000000,0.0000000,0.0000000,0.0200090,0.0517439,0.0000000,0.0000000,0.0071547,0.0000000,0.0000000,0.0000000,0.0517439,0.0000000,0.0000000,0.0071547,0.0000000,0.0000000,0.0000000,0.0517439,0.0000000,0.0000000,0.0071547,0.0071547,0.0000000,0.0000000,0.0019793,0.0000000,0.0000000,0.0000000,0.0071547,0.0000000,0.0000000,0.0019793,0.0000000,0.0000000,0.0000000,0.0071547,0.0000000,0.0000000,0.0019793
39.3298760,1.0994999,,-0.9989698,-0.0453265,-0.0008068,0.0020380,-0.0032946,-0.0023718,-0.0002876,,,,0.3680912,-7.2147741,-21.3936939,0.0000000,0.0000000,0.0000000,0.0219900,0.0520586,0.0000000,0.0000000,0.0071983,0.0000000,0.0000000,0.0000000,0.0520586,0.0000000,0.0000000,0.0071983,0.0000000,0.0000000,0.0000000,0.0520586,0.0000000,0.0000000,0.0071983,0.0071983,0.0000000,0.0000000,0.0019853,0.0000000,0.0000000,0.0000000,0.0071983,0.0000000,0.0000000,0.0019853,0.0000000,0.0000000,0.0000000,0.0071983,0.0000000,0.0000000,0.0019853
39.3509130,1.0501001,,-0.9989698,-0.0453265,-0.0008058,0.0020438,0.0020987,-0.0013690,0.0003445,,,,0.3680912,-7.2147741,-21.3936939,0.0000000,0.0000000,0.0000000,0.0210020,0.0523610,0.0000000,0.0000000,0.0072400,0.0000000,0.0000000,0.0000000,0.0523610,0.0000000,0.0000000,0.0072400,0.0000000,0.0000000,0.0000000,0.0523610,0.0000000,0.0000000,0.0072400,0.0072400,0.0000000,0.0000000,0.0019911,0.0000000,0.0000000,0.0000000,0.0072400,0.0000000,0.0000000,0.0019911,0.0000000,0.0000000,0.0000000,0.0072400,0.0000000,0.0000000,0.0019911
39.3731730,1.0499500,,-0.9989698,-0.0453265,-0.0008181,0.0020418,0.0015987,0.0010779,0.0038343,,,,0.3680912,-7.2147741,-21.3936939,0.0000000,0.0000000,0.0000000,0.0209990,0.0526650,0.0000000,0.0000000,0.0072819,0.0000000,0.0000000,0.0000000,0.0526650,0.0000000,0.0000000,0.0072819,0.0000000,0.0000000,0.0000000,0.0526650,0.0000000,0.0000000,0.0072819,0.0072819,0.0000000,0.0000000,0.0019969,0.0000000,0.0000000,0.0000000,0.0072819,0.0000000,0.0000000,0.0019969,0.0000000,0.0000000,0.0000000,0.0072819,0.0000000,0.0000000,0.0019969
39.3919070,0.9999500,,-0.9989698,-0.0453265,-0.0008044,0.0020511,-0.0054491,-0.0030469,0.0019172,,,,0.3680912,-7.2147741,-21.3936939,0.0000000,0.0000000,0.0000000,0.0199990,0.0529563,0.0000000,0.0000000,0.0073219,0.0000000,0.0000000,0.0000000,0.0529563,0.0000000,0.0000000,0.0073219,0.0000000,0.0000000,0.0000000,0.0529563,0.0000000,0.0000000,0.0073219,0.0073219,0.0000000,0.0000000,0.0020024,0.0000000,0.0000000,0.0000000,0.0073219,0.0000000,0.0000000,0.0020024,0.0000000,0.0000000,0.0000000,0.0073219,0.0000000,0.0000000,0.0020024
39.4077860,,1.0200000,-0.9989698,-0.0453265,-0.0008044,0.0020511,,,,0.0000000,0.0000000,0.0000000,0.3680912,-7.2147741,-21.3936939,0.0000000,0.0000000,0.0000000,0.1020000,0.0515038,0.0000000,0.0000000,0.0071211,0.0000000,0.0000000,0.0000000,0.0515038,0.0000000,0.0000000,0.0071211,0.0000000,0.0000000,0.0000000,0.0515038,0.0000000,0.0000000,0.0071211,0.0071211,0.0000000,0.0000000,0.0019746,0.0000000,0.0000000,0.0000000,0.0071211,0.0000000,0.0000000,0.0019746,0.0000000,0.0000000,0.0000000,0.0071211,0.0000000,0.0000000,0.0019746
39.4214920,1.0001000,,-0.9989698,-0.0453265,-0.0007965,0.0020631,-0.0021371,-0.0033850,0.0085269,,,,0.3680912,-7.2147741,-21.3936939,0.0000000,0.0000000,0.0000000,0.0200020,0.0517886,0.0000000,0.0000000,0.0071606,0.0000000,0.0000000,0.0000000,0.0517886,0.0000000,0.0000000,0.0071606,0.0000000,0.0000000,0.0000000,0.0517886,0.0000000,0.0000000,0.0071606,0.0071606,0.0000000,0.0000000,0.0019801,0.0000000,0.0000000,0.0000000,0.0071606,0.0000000,0.0000000,0.0019801,0.0000000,0.0000000,0.0000000,0.0071606,0.0000000,0.0000000,0.0019801
39.4348900,1.1499000,,-0.9989698,-0.0453264,-0.0007879,0.0020646,-0.0036473,-0.0033252,0.0093904,,,,0.3680912,-7.2147741,-21.3936939,0.0000000,0.0000000,0.0000000,0.0229980,0.0521180,0.0000000,0.0000000,0.0072062,0.0000000,0.0000000,0.0000000,0.0521180,0.0000000,0.0000000,0.0072062,0.0000000,0.0000000,0.0000000,0.0521180,0.0000000,0.0000000,0.0072062,0.0072062,0.0000000,0.0000000,0.0019864,0.0000000,0.0000000,0.0000000,0.0072062,0.0000000,0.0000000,0.0019864,0.0000000,0.0000000,0.0000000,0.0072062,0.0000000,0.0000000,0.0019864
39.4559720,1.0501500,,-0.9989698,-0.0453265,-0.0008019,0.0020484,-0.0054095,-0.0006403,0.0029862,,,,0.3680912,-7.2147741,-21.3936939,0.0000000,0.0000000,0.0000000,0.0210030,0.0524207,0.0000000,0.0000000,0.0072480,0.0000000,0.0000000,0.0000000,0.0524207,0.0000000,0.0000000,0.0072480,0.0000000,0.0000000,0.0000000,0.0524207,0.0000000,0.0000000,0.0072480,0.0072480,0.0000000,0.0000000,0.0019922,0.0000000,0.0000000,0.0000000,0.0072480,0.0000000,0.0000000,0.0019922,0.0000000,0.0000000,0.0000000,0.0072480,0.0000000,0.0000000,0.0019922
39.4782510,1.0498999,,-0.9989699,-0.0453265,-0.0007986,0.0020256,-0.0040780,0.0033572,-0.0077842,,,,0.3680912,-7.2147741,-21.3936939,0.0000000,0.0000000,0.0000000,0.0209980,0.0527251,0.0000000,0.0000000,0.0072899,0.0000000,0.0000000,0.0000000,0.0527251,0.0000000,0.0000000,0.0072899,0.0000000,0.0000000,0.0000000,0.0527251,0.0000000,0.0000000,0.0072899,0.0072899,0.0000000,0.0000000,0.0019979,0.0000000,0.0000000,0.0000000,0.0072899,0.0000000,0.0000000,0.0019979,0.0000000,0.0000000,0.0000000,0.0072899,0.0000000,0.0000000,0.0019979
39.4969600,1.0000501,,-0.9989699,-0.0453265,-0.0007677,0.0020133,-0.0062810,0.0002290,-0.0034038,,,,0.3680912,-7.2147741,-21.3936939,0.0000000,0.0000000,0.0000000,0.0200010,0.0530167,0.0000000,0.0000000,0.0073299,0.0000000,0.0000000,0.0000000,0.0530167,0.0000000,0.0000000,0.0073299,0.0000000,0.0000000,0.0000000,0.0530167,0.0000000,0.0000000,0.0073299,0.0073299,0.0000000,0.0000000,0.0020034,0.0000000,0.0000000,0.0000000,0.0073299,0.0000000,0.0000000,0.0020034,0.0000000,0.0000000,0.0000000,0.0073299,0.0000000,0.0000000,0.0020034
39.5128800,,1.0000000,-0.9989699,-0.0453265,-0.0007677,0.0020100,,,,0.0000000,0.0000000,0.0000000,0.3680912,-7.2147741,-21.3936939,0.0000000,0.0000000,0.0000000,0.1000000,0.0515609,0.0000000,0.0000000,0.0071286,0.0000000,0.0000000,0.0000000,0.0515609,0.0000000,0.0000000,0.0071286,0.0000000,0.0000000,0.0000000,0.0515609,0.0000000,0.0000000,0.0071286,0.0071286,0.0000000,0.0000000,0.0019756,0.0000000,0.0000000,0.0000000,0.0071286,0.0000000,0.0000000,0.0019756,0.0000000,0.0000000,0.0000000,0.0071286,0.0000000,0.0000000,0.0019756
39.5265800,0.9999000,,-0.9989699,-0.0453264,-0.0007330,0.0020100,-0.0061236,-0.0071868,0.0022043,,,,0.3680912,-7.2147741,-21.3936939,0.0000000,0.0000000,0.0000000,0.0199980,0.0518460,0.0000000,0.0000000,0.0071682,0.0000000,0.0000000,0.0000000,0.0518460,0.0000000,0.0000000,0.0071682,0.0000000,0.0000000,0.0000000,0.0518460,0.0000000,0.0000000,0.0071682,0.0071682,0.0000000,0.0000000,0.0019811,0.0000000,0.0000000,0.0000000,0.0071682,0.0000000,0.0000000,0.0019811,0.0000000,0.0000000,0.0000000,0.0071682,0.0000000,0.0000000,0.0019811
39.5398780,1.1500000,,-0.9989700,-0.0453264,-0.0007510,0.0019863,0.0036521,0.0002900,-0.0037806,,,,0.3680912,-7.2147741,-21.3936939,0.0000000,0.0000000,0.0000000,0.0230000,0.0521758,0.0000000,0.0000000,0.0072138,0.0000000,0.0000000,0.0000000,0.0521758,0.0000000,0.0000000,0.0072138,0.0000000,0.0000000,0.0000000,0.0521758,0.0000000,0.0000000,0.0072138,0.0072138,0.0000000,0.0000000,0.0019874,0.0000000,0.0000000,0.0000000,0.0072138,0.0000000,0.0000000,0.0019874,0.0000000,0.0000000,0.0000000,0.0072138,0.0000000,0.0000000,0.0019874
39.5609820,1.0501001,,-0.9989699,-0.0453264,-0.0007505,0.0020100,0.0031841,-0.0042038,-0.0014020,,,,0.3680912,-7.2147741,-21.3936939,0.0000000,0.0000000,0.0000000,0.0210020,0.0524788,0.0000000,0.0000000,0.0072556,0.0000000,0.0000000,0.0000000,0.0524788,0.0000000,0.0000000,0.0072556,0.0000000,0.0000000,0.0000000,0.0524788,0.0000000,0.0000000,0.0072556,0.0072556,0.0000000,0.0000000,0.0019931,0.0000000,0.0000000,0.0000000,0.0072556,0.0000000,0.0000000,0.0019931,0.0000000,0.0000000,0.0000000,0.0072556,0.0000000,0.0000000,0.0019931
39.5832140,1.0499500,,-0.9989699,-0.0453264,-0.0007409,0.0020290,0.0000433,-0.0064354,0.0000314,,,,0.3680912,-7.2147741,-21.3936939,0.0000000,0.0000000,0.0000000,0.0209990,0.0527835,0.0000000,0.0000000,0.0072975,0.0000000,0.0000000,0.0000000,0.0527835,0.0000000,0.0000000,0.0072975,0.0000000,0.0000000,0.0000000,0.0527835,0.0000000,0.0000000,0.0072975,0.0072975,0.0000000,0.0000000,0.0019989,0.0000000,0.0000000,0.0000000,0.0072975,0.0000000,0.0000000,0.0019989,0.0000000,0.0000000,0.0000000,0.0072975,0.0000000,0.0000000,0.0019989
39.6024610,,0.9999900,-0.9989699,-0.0453264,-0.0007329,0.0020409,,,,0.0000000,0.0000000,0.0000000,0.3680912,-7.2147741,-21.3936939,0.0000000,0.0000000,0.0000000,0.0999990,0.0513403,0.0000000,0.0000000,0.0070980,0.0000000,0.0000000,0.0000000,0.0513403,0.0000000,0.0000000,0.0070980,0.0000000,0.0000000,0.0000000,0.0513403,0.0000000,0.0000000,0.0070980,0.0070980,0.0000000,0.0000000,0.0019713,0.0000000,0.0000000,0.0000000,0.0070980,0.0000000,0.0000000,0.0019713,0.0000000,0.0000000,0.0000000,0.0070980,0.0000000,0.0000000,0.0019713
39.6157970,0.9999500,,-0.9989699,-0.0453264,-0.0007329,0.0020409,-0.0037244,-0.0026607,0.0005040,,,,0.3680912,-7.2147741,-21.3936939,0.0000000,0.0000000,0.0000000,0.0199990,0.0516242,0.0000000,0.0000000,0.0071375,0.0000000,0.0000000,0.0000000,0.0516242,0.0000000,0.0000000,0.0071375,0.0000000,0.0000000,0.0000000,0.0516242,0.0000000,0.0000000,0.0071375,0.0071375,0.0000000,0.0000000,0.0019768,0.0000000,0.0000000,0.0000000,0.0071375,0.0000000,0.0000000,0.0019768,0.0000000,0.0000000,0.0000000,0.0071375,0.0000000,0.0000000,0.0019768
39.6302700,1.3500000,,-0.9989698,-0.0453263,-0.0007364,0.0020755,-0.0063559,-0.0090208,0.0002520,,,,0.3680912,-7.2147741,-21.3936939,0.0000000,0.0000000,0.0000000,0.0270000,0.0520096,0.0000000,0.0000000,0.0071909,0.0000000,0.0000000,0.0000000,0.0520096,0.0000000,0.0000000,0.0071909,0.0000000,0.0000000,0.0000000,0.0520096,0.0000000,0.0000000,0.0071909,0.0071909,0.0000000,0.0000000,0.0019842,0.0000000,0.0000000,0.0000000,0.0071909,0.0000000,0.0000000,0.0019842,0.0000000,0.0000000,0.0000000,0.0071909,0.0000000,0.0000000,0.0019842
39.6487660,1.0003500,,-0.9989698,-0.0453263,-0.0007279,0.0020791,-0.0091136,-0.0051436,0.0032998,,,,0.3680912,-7.2147741,-21.3936939,0.0000000,0.0000000,0.0000000,0.0200070,0.0522974,0.0000000,0.0000000,0.0072307,0.0000000,0.0000000,0.0000000,0.0522974,0.0000000,0.0000000,0.0072307,0.0000000,0.0000000,0.0000000,0.0522974,0.0000000,0.0000000,0.0072307,0.0072307,0.0000000,0.0000000,0.0019897,0.0000000,0.0000000,0.0000000,0.0072307,0.0000000,0.0000000,0.0019897,0.0000000,0.0000000,0.0000000,0.0072307,0.0000000,0.0000000,0.0019897
39.6688690,1.0001000,,-0.9989698,-0.0453264,-0.0007341,0.0020690,0.0053538,-0.0002983,0.0023823,,,,0.3680912,-7.2147741,-21.3936939,0.0000000,0.0000000,0.0000000,0.0200020,0.0525866,0.0000000,0.0000000,0.0072705,0.0000000,0.0000000,0.0000000,0.0525866,0.0000000,0.0000000,0.0072705,0.0000000,0.0000000,0.0000000,0.0525866,0.0000000,0.0000000,0.0072705,0.0072705,0.0000000,0.0000000,0.0019952,0.0000000,0.0000000,0.0000000,0.0072705,0.0000000,0.0000000,0.0019952,0.0000000,0.0000000,0.0000000,0.0072705,0.0000000,0.0000000,0.0019952
39.6904200,1.0000000,,-0.9989698,-0.0453263,-0.0007268,0.0020646,0.0089482,0.0033451,0.0077830,,,,0.3680912,-7.2147741,-21.3936939,0.0000000,0.0000000,0.0000000,0.0200000,0.0528775,0.0000000,0.0000000,0.0073105,0.0000000,0.0000000,0.0000000,0.0528775,0.0000000,0.0000000,0.0073105,0.0000000,0.0000000,0.0000000,0.0528775,0.0000000,0.0000000,0.0073105,0.0073105,0.0000000,0.0000000,0.0020007,0.0000000,0.0000000,0.0000000,0.0073105,0.0000000,0.0000000,0.0020007,0.0000000,0.0000000,0.0000000,0.0073105,0.0000000,0.0000000,0.0020007
39.7051390,,1.0000100,-0.9989698,-0.0453263,-0.0007193,0.0020646,,,,0.0000000,0.0000000,0.0000000,0.3680912,-7.2147741,-21.3936939,0.0000000,0.0000000,0.0000000,0.1000010,0.0514292,0.0000000,0.0000000,0.0071103,0.0000000,0.0000000,0.0000000,0.0514292,0.0000000,0.0000000,0.0071103,0.0000000,0.0000000,0.0000000,0.0514292,0.0000000,0.0000000,0.0071103,0.0071103,0.0000000,0.0000000,0.0019730,0.0000000,0.0000000,0.0000000,0.0071103,0.0000000,0.0000000,0.0019730,0.0000000,0.0000000,0.0000000,0.0071103,0.0000000,0.0000000,0.0019730
39.7205430,0.9996000,,-0.9989698,-0.0453263,-0.0007193,0.0020646,0.0066027,-0.0011732,0.0014501,,,,0.3680912,-7.2147741,-21.3936939,0.0000000,0.0000000,0.0000000,0.0199920,0.0517135,0.0000000,0.0000000,0.0071498,0.0000000,0.0000000,0.0000000,0.0517135,0.0000000,0.0000000,0.0071498,0.0000000,0.0000000,0.0000000,0.0517135,0.0000000,0.0000000,0.0071498,0.0071498,0.0000000,0.0000000,0.0019785,0.0000000,0.0000000,0.0000000,0.0071498,0.0000000,0.0000000,0.0019785,0.0000000,0.0000000,0.0000000,0.0071498,0.0000000,0.0000000,0.0019785
39.7336570,1.2499501,,-0.9989698,-0.0453263,-0.0007208,0.0020934,-0.0021537,-0.0063086,0.0063403,,,,0.3680912,-7.2147741,-21.3936939,0.0000000,0.0000000,0.0000000,0.0249990,0.0520710,0.0000000,0.0000000,0.0071993,0.0000000,0.0000000,0.0000000,0.0520710,0.0000000,0.0000000,0.0071993,0.0000000,0.0000000,0.0000000,0.0520710,0.0000000,0.0000000,0.0071993,0.0071993,0.0000000,0.0000000,0.0019854,0.0000000,0.0000000,0.0000000,0.0071993,0.0000000,0.0000000,0.0019854,0.0000000,0.0000000,0.0000000,0.0071993,0.0000000,0.0000000,0.0019854
39.7546040,1.0501500,,-0.9989697,-0.0453263,-0.0007153,0.0021180,-0.0013896,-0.0047031,-0.0000037,,,,0.3680912,-7.2147741,-21.3936939,0.0000000,0.0000000,0.0000000,0.0210030,0.0523734,0.0000000,0.0000000,0.0072410,0.0000000,0.0000000,0.0000000,0.0523734,0.0000000,0.0000000,0.0072410,0.0000000,0.0000000,0.0000000,0.0523734,0.0000000,0.0000000,0.0072410,0.0072410,0.0000000,0.0000000,0.0019911,0.0000000,0.0000000,0.0000000,0.0072410,0.0000000,0.0000000,0.0019911,0.0000000,0.0000000,0.0000000,0.0072410,0.0000000,0.0000000,0.0019911
39.7760100,1.0498999,,-0.9989697,-0.0453263,-0.0007292,0.0021257,-0.0007940,-0.0039156,-0.0021991,,,,0.3680912,-7.2147741,-21.3936939,0.0000000,0.0000000,0.0000000,0.0209980,0.0526775,0.0000000,0.0000000,0.0072829,0.0000000,0.0000000,0.0000000,0.0526775,0.0000000,0.0000000,0.0072829,0.0000000,0.0000000,0.0000000,0.0526775,0.0000000,0.0000000,0.0072829,0.0072829,0.0000000,0.0000000,0.0019969,0.0000000,0.0000000,0.0000000,0.0072829,0.0000000,0.0000000,0.0019969,0.0000000,0.0000000,0.0000000,0.0072829,0.0000000,0.0000000,0.0019969
39.7960070,1.0005001,,-0.9989697,-0.0453263,-0.0007431,0.0021223,-0.0014880,-0.0062226,-0.0067148,,,,0.3680912,-7.2147741,-21.3936939,0.0000000,0.0000000,0.0000000,0.0200100,0.0529689,0.0000000,0.0000000,0.0073229,0.0000000,0.0000000,0.0000000,0.0529689,0.0000000,0.0000000,0.0073229,0.0000000,0.0000000,0.0000000,0.0529689,0.0000000,0.0000000,0.0073229,0.0073229,0.0000000,0.0000000,0.0020024,0.0000000,0.0000000,0.0000000,0.0073229,0.0000000,0.0000000,0.0020024,0.0000000,0.0000000,0.0000000,0.0073229,0.0000000,0.0000000,0.0020024
39.8133540,,1.0200700,-0.9989697,-0.0453263,-0.0007431,0.0021223,,,,0.0000000,0.0000000,0.0000000,0.3680912,-7.2147741,-21.3936939,0.0000000,0.0000000,0.0000000,0.1020070,0.0515157,0.0000000,0.0000000,0.0071220,0.0000000,0.0000000,0.0000000,0.0515157,0.0000000,0.0000000,0.0071220,0.0000000,0.0000000,0.0000000,0.0515157,0.0000000,0.0000000,0.0071220,0.0071220,0.0000000,0.0000000,0.0019746,0.0000000,0.0000000,0.0000000,0.0071220,0.0000000,0.0000000,0.0019746,0.0000000,0.0000000,0.0000000,0.0071220,0.0000000,0.0000000,0.0019746
39.8270710,1.0996000,,-0.9989697,-0.0453263,-0.0007411,0.0021128,-0.0076791,-0.0044541,-0.0062871,,,,0.3680912,-7.2147741,-21.3936939,0.0000000,0.0000000,0.0000000,0.0219920,0.0518290,0.0000000,0.0000000,0.0071655,0.0000000,0.0000000,0.0000000,0.0518290,0.0000000,0.0000000,0.0071655,0.0000000,0.0000000,0.0000000,0.0518290,0.0000000,0.0000000,0.0071655,0.0071655,0.0000000,0.0000000,0.0019806,0.0000000,0.0000000,0.0000000,0.0071655,0.0000000,0.0000000,0.0019806,0.0000000,0.0000000,0.0000000,0.0071655,0.0000000,0.0000000,0.0019806
39.8397460,1.0998499,,-0.9989697,-0.0453264,-0.0007623,0.0021093,0.0008983,-0.0047905,-0.0065615,,,,0.3680912,-7.2147741,-21.3936939,0.0000000,0.0000000,0.0000000,0.0219970,0.0521442,0.0000000,0.0000000,0.0072091,0.0000000,0.0000000,0.0000000,0.0521442,0.0000000,0.0000000,0.0072091,0.0000000,0.0000000,0.0000000,0.0521442,0.0000000,0.0000000,0.0072091,0.0072091,0.0000000,0.0000000,0.0019867,0.0000000,0.0000000,0.0000000,0.0072091,0.0000000,0.0000000,0.0019867,0.0000000,0.0000000,0.0000000,0.0072091,0.0000000,0.0000000,0.0019867
39.8609330,1.0500500,,-0.9989697,-0.0453264,-0.0007684,0.0021274,-0.0018854,-0.0049206,-0.0020601,,,,0.3680912,-7.2147741,-21.3936939,0.0000000,0.0000000,0.0000000,0.0210010,0.0524470,0.0000000,0.0000000,0.0072509,0.0000000,0.0000000,0.0000000,0.0524470,0.0000000,0.0000000,0.0072509,0.0000000,0.0000000,0.0000000,0.0524470,0.0000000,0.0000000,0.0072509,0.0072509,0.0000000,0.0000000,0.0019924,0.0000000,0.0000000,0.0000000,0.0072509,0.0000000,0.0000000,0.0019924,0.0000000,0.0000000,0.0000000,0.0072509,0.0000000,0.0000000,0.0019924
39.8822610,1.0000501,,-0.9989697,-0.0453264,-0.0007595,0.0021069,-0.0071531,-0.0011404,-0.0000535,,,,0.3680912,-7.2147741,-21.3936939,0.0000000,0.0000000,0.0000000,0.0200010,0.0527371,0.0000000,0.0000000,0.0072908,0.0000000,0.0000000,0.0000000,0.0527371,0.0000000,0.0000000,0.0072908,0.0000000,0.0000000,0.0000000,0.0527371,0.0000000,0.0000000,0.0072908,0.0072908,0.0000000,0.0000000,0.0019979,0.0000000,0.0000000,0.0000000,0.0072908,0.0000000,0.0000000,0.0019979,0.0000000,0.0000000,0.0000000,0.0072908,0.0000000,0.0000000,0.0019979
39.9041820,,0.9999300,-0.9989697,-0.0453264,-0.0007428,0.0021137,,,,0.0000000,0.0000000,0.0000000,0.3680912,-7.2147741,-21.3936939,0.0000000,0.0000000,0.0000000,0.0999930,0.0512964,0.0000000,0.0000000,0.0070916,0.0000000,0.0000000,0.0000000,0.0512964,0.0000000,0.0000000,0.0070916,0.0000000,0.0000000,0.0000000,0.0512964,0.0000000,0.0000000,0.0070916,0.0070916,0.0000000,0.0000000,0.0019704,0.0000000,0.0000000,0.0000000,0.0070916,0.0000000,0.0000000,0.0019704,0.0000000,0.0000000,0.0000000,0.0070916,0.0000000,0.0000000,0.0019704
39.9177790,1.0506500,,-0.9989697,-0.0453264,-0.0007428,0.0021137,-0.0085433,-0.0055598,-0.0022240,,,,0.3680912,-7.2147741,-21.3936939,0.0000000,0.0000000,0.0000000,0.0210130,0.0515944,0.0000000,0.0000000,0.0071331,0.0000000,0.0000000,0.0000000,0.0515944,0.0000000,0.0000000,0.0071331,0.0000000,0.0000000,0.0000000,0.0515944,0.0000000,0.0000000,0.0071331,0.0071331,0.0000000,0.0000000,0.0019762,0.0000000,0.0000000,0.0000000,0.0071331,0.0000000,0.0000000,0.0019762,0.0000000,0.0000000,0.0000000,0.0071331,0.0000000,0.0000000,0.0019762
39.9304720,1.4492500,,-0.9989698,-0.0453263,-0.0007130,0.0020969,-0.0067512,-0.0053663,0.0023060,,,,0.3680912,-7.2147741,-21.3936939,0.0000000,0.0000000,0.0000000,0.0289850,0.0520079,0.0000000,0.0000000,0.0071905,0.0000000,0.0000000,0.0000000,0.0520079,0.0000000,0.0000000,0.0071905,0.0000000,0.0000000,0.0000000,0.0520079,0.0000000,0.0000000,0.0071905,0.0071905,0.0000000,0.0000000,0.0019841,0.0000000,0.0000000,0.0000000,0.0071905,0.0000000,0.0000000,0.0019841,0.0000000,0.0000000,0.0000000,0.0071905,0.0000000,0.0000000,0.0019841
39.9504870,1.0001501,,-0.9989699,-0.0453263,-0.0007117,0.0020720,-0.0063739,-0.0004248,-0.0022650,,,,0.3680912,-7.2147741,-21.3936939,0.0000000,0.0000000,0.0000000,0.0200030,0.0522956,0.0000000,0.0000000,0.0072302,0.0000000,0.0000000,0.0000000,0.0522956,0.0000000,0.0000000,0.0072302,0.0000000,0.0000000,0.0000000,0.0522956,0.0000000,0.0000000,0.0072302,0.0072302,0.0000000,0.0000000,0.0019896,0.0000000,0.0000000,0.0000000,0.0072302,0.0000000,0.0000000,0.0019896,0.0000000,0.0000000,0.0000000,0.0072302,0.0000000,0.0000000,0.0019896
39.9720170,1.0500000,,-0.9989699,-0.0453264,-0.0007153,0.0020427,-0.0052164,0.0017712,-0.0013766,,,,0.3680912,-7.2147741,-21.3936939,0.0000000,0.0000000,0.0000000,0.0210000,0.0525993,0.0000000,0.0000000,0.0072720,0.0000000,0.0000000,0.0000000,0.0525993,0.0000000,0.0000000,0.0072720,0.0000000,0.0000000,0.0000000,0.0525993,0.0000000,0.0000000,0.0072720,0.0072720,0.0000000,0.0000000,0.0019954,0.0000000,0.0000000,0.0000000,0.0072720,0.0000000,0.0000000,0.0019954,0.0000000,0.0000000,0.0000000,0.0072720,0.0000000,0.0000000,0.0019954
39.9932650,0.9999000,,-0.9989700,-0.0453264,-0.0007086,0.0020094,-0.0070561,0.0072256,-0.0050828,,,,0.3680912,-7.2147741,-21.3936939,0.0000000,0.0000000,0.0000000,0.0199980,0.0528901,0.0000000,0.0000000,0.0073120,0.0000000,0.0000000,0.0000000,0.0528901,0.0000000,0.0000000,0.0073120,0.0000000,0.0000000,0.0000000,0.0528901,0.0000000,0.0000000,0.0073120,0.0073120,0.0000000,0.0000000,0.0020008,0.0000000,0.0000000,0.0000000,0.0073120,0.0000000,0.0000000,0.0020008,0.0000000,0.0000000,0.0000000,0.0073120,0.0000000,0.0000000,0.0020008
40.0090600,,1.0000000,-0.9989700,-0.0453264,-0.0007086,0.0019871,,,,0.0000000,0.0000000,0.0000000,0.3680912,-7.2147741,-21.3936939,0.0000000,0.0000000,0.0000000,0.1000000,0.0514412,0.0000000,0.0000000,0.0071117,0.0000000,0.0000000,0.0000000,0.0514412,0.0000000,0.0000000,0.0071117,0.0000000,0.0000000,0.0000000,0.0514412,0.0000000,0.0000000,0.0071117,0.0071117,0.0000000,0.0000000,0.0019732,0.0000000,0.0000000,0.0000000,0.0071117,0.0000000,0.0000000,0.0019732,0.0000000,0.0000000,0.0000000,0.0071117,0.0000000,0.0000000,0.0019732
40.0227660,1.0002999,,-0.9989700,-0.0453264,-0.0007001,0.0019871,-0.0091891,0.0009120,-0.0010766,,,,0.3680912,-7.2147741,-21.3936939,0.0000000,0.0000000,0.0000000,0.0200060,0.0517257,0.0000000,0.0000000,0.0071512,0.0000000,0.0000000,0.0000000,0.0517257,0.0000000,0.0000000,0.0071512,0.0000000,0.0000000,0.0000000,0.0517257,0.0000000,0.0000000,0.0071512,0.0071512,0.0000000,0.0000000,0.0019786,0.0000000,0.0000000,0.0000000,0.0071512,0.0000000,0.0000000,0.0019786,0.0000000,0.0000000,0.0000000,0.0071512,0.0000000,0.0000000,0.0019786
40.0356230,1.1997001,,-0.9989700,-0.0453263,-0.0006797,0.0019843,-0.0043657,-0.0027178,0.0038562,,,,0.3680912,-7.2147741,-21.3936939,0.0000000,0.0000000,0.0000000,0.0239940,0.0520689,0.0000000,0.0000000,0.0071988,0.0000000,0.0000000,0.0000000,0.0520689,0.0000000,0.0000000,0.0071988,0.0000000,0.0000000,0.0000000,0.0520689,0.0000000,0.0000000,0.0071988,0.0071988,0.0000000,0.0000000,0.0019852,0.0000000,0.0000000,0.0000000,0.0071988,0.0000000,0.0000000,0.0019852,0.0000000,0.0000000,0.0000000,0.0071988,0.0000000,0.0000000,0.0019852
40.0570420,1.0502501,,-0.9989700,-0.0453263,-0.0006732,0.0019800,-0.0051354,-0.0003900,0.0031488,,,,0.3680912,-7.2147741,-21.3936939,0.0000000,0.0000000,0.0000000,0.0210050,0.0523713,0.0000000,0.0000000,0.0072405,0.0000000,0.0000000,0.0000000,0.0523713,0.0000000,0.0000000,0.0072405,0.0000000,0.0000000,0.0000000,0.0523713,0.0000000,0.0000000,0.0072405,0.0072405,0.0000000,0.0000000,0.0019910,0.0000000,0.0000000,0.0000000,0.0072405,0.0000000,0.0000000,0.0019910,0.0000000,0.0000000,0.0000000,0.0072405,0.0000000,0.0000000,0.0019910
40.0769150,0.9997500,,-0.9989701,-0.0453264,-0.0006675,0.0019564,-0.0042919,0.0048862,0.0040158,,,,0.3680912,-7.2147741,-21.3936939,0.0000000,0.0000000,0.0000000,0.0199950,0.0526609,0.0000000,0.0000000,0.0072804,0.0000000,0.0000000,0.0000000,0.0526609,0.0000000,0.0000000,0.0072804,0.0000000,0.0000000,0.0000000,0.0526609,0.0000000,0.0000000,0.0072804,0.0072804,0.0000000,0.0000000,0.0019965,0.0000000,0.0000000,0.0000000,0.0072804,0.0000000,0.0000000,0.0019965,0.0000000,0.0000000,0.0000000,0.0072804,0.0000000,0.0000000,0.0019965
40.0965300,1.0001000,,-0.9989701,-0.0453263,-0.0006510,0.0019563,-0.0087225,0.0065706,-0.0018983,,,,0.3680912,-7.2147741,-21.3936939,0.0000000,0.0000000,0.0000000,0.0200020,0.0529521,0.0000000,0.0000000,0.0073204,0.0000000,0.0000000,0.0000000,0.0529521,0.0000000,0.0000000,0.0073204,0.0000000,0.0000000,0.0000000,0.0529521,0.0000000,0.0000000,0.0073204,0.0073204,0.0000000,0.0000000,0.0020020,0.0000000,0.0000000,0.0000000,0.0073204,0.0000000,0.0000000,0.0020020,0.0000000,0.0000000,0.0000000,0.0073204,0.0000000,0.0000000,0.0020020
40.1130790,,1.0199800,-0.9989701,-0.0453263,-0.0006510,0.0019563,,,,0.0000000,0.0000000,0.0000000,0.3680912,-7.2147741,-21.3936939,0.0000000,0.0000000,0.0000000,0.1019980,0.0514998,0.0000000,0.0000000,0.0071196,0.0000000,0.0000000,0.0000000,0.0514998,0.0000000,0.0000000,0.0071196,0.0000000,0.0000000,0.0000000,0.0514998,0.0000000,0.0000000,0.0071196,0.0071196,0.0000000,0.0000000,0.0019742,0.0000000,0.0000000,0.0000000,0.0071196,0.0000000,0.0000000,0.0019742,0.0000000,0.0000000,0.0000000,0.0071196,0.0000000,0.0000000,0.0019742
40.1266390,1.0004500,,-0.9989701,-0.0453263,-0.0006475,0.0019640,-0.0026523,-0.0001403,-0.0053437,,,,0.3680912,-7.2147741,-21.3936939,0.0000000,0.0000000,0.0000000,0.0200090,0.0517847,0.0000000,0.0000000,0.0071592,0.0000000,0.0000000,0.0000000,0.0517847,0.0000000,0.0000000,0.0071592,0.0000000,0.0000000,0.0000000,0.0517847,0.0000000,0.0000000,0.0071592,0.0071592,0.0000000,0.0000000,0.0019797,0.0000000,0.0000000,0.0000000,0.0071592,0.0000000,0.0000000,0.0019797,0.0000000,0.0000000,0.0000000,0.0071592,0.0000000,0.0000000,0.0019797
40.1401380,1.1494499,,-0.9989642,-0.0454433,-0.0005435,0.0022501,-0.0145708,-0.2480407,0.0891250,,,,0.3680814,-7.2147093,-21.3937168,-0.0008495,0.0056575,-0.0020240,0.0229890,0.0521139,0.0000000,0.0000000,0.0072047,0.0000000,0.0000000,0.0000000,0.0521139,0.0000000,0.0000000,0.0072047,0.0000000,0.0000000,0.0000000,0.0521139,0.0000000,0.0000000,0.0072047,0.0072047,0.0000000,0.0000000,0.0019860,0.0000000,0.0000000,0.0000000,0.0072047,0.0000000,0.0000000,0.0019860,0.0000000,0.0000000,0.0000000,0.0072047,0.0000000,0.0000000,0.0019860
40.1623070,1.0499500,,-0.9989545,-0.0455938,-0.0002082,0.0031640,-0.0749657,-0.2215011,0.0667640,,,,0.3680814,-7.2147093,-21.3937168,0.0000000,0.0000000,0.0000000,0.0209990,0.0524165,0.0000000,0.0000000,0.0072465,0.0000000,0.0000000,0.0000000,0.0524165,0.0000000,0.0000000,0.0072465,0.0000000,0.0000000,0.0000000,0.0524165,0.0000000,0.0000000,0.0072465,0.0072465,0.0000000,0.0000000,0.0019918,0.0000000,0.0000000,0.0000000,0.0072465,0.0000000,0.0000000,0.0019918,0.0000000,0.0000000,0.0000000,0.0072465,0.0000000,0.0000000,0.0019918
40.1811620,1.0000000,,-0.9989488,-0.0456747,-0.0001510,0.0037792,-0.1356732,-0.3627113,0.1036793,,,,0.3680478,-7.2146392,-21.3937378,-0.0033642,0.0069918,-0.0020206,0.0200000,0.0527064,0.0000000,0.0000000,0.0072864,0.0000000,0.0000000,0.0000000,0.0527064,0.0000000,0.0000000,0.0072864,0.0000000,0.0000000,0.0000000,0.0527064,0.0000000,0.0000000,0.0072864,0.0072864,0.0000000,0.0000000,0.0019973,0.0000000,0.0000000,0.0000000,0.0072864,0.0000000,0.0000000,0.0019973,0.0000000,0.0000000,0.0000000,0.0072864,0.0000000,0.0000000,0.0019973
40.2009660,1.0006500,,-0.9989495,-0.0456296,-0.0002307,0.0041389,-0.1515997,-0.1124164,-0.4157049,,,,0.3679481,-7.2144804,-21.3936939,-0.0065913,0.0088866,0.0063146,0.0200130,0.0529980,0.0000000,0.0000000,0.0073264,0.0000000,0.0000000,0.0000000,0.0529980,0.0000000,0.0000000,0.0073264,0.0000000,0.0000000,0.0000000,0.0529980,0.0000000,0.0000000,0.0073264,0.0073264,0.0000000,0.0000000,0.0020028,0.0000000,0.0000000,0.0000000,0.0073264,0.0000000,0.0000000,0.0020028,0.0000000,0.0000000,0.0000000,0.0073264,0.0000000,0.0000000,0.0020028
40.2160560,,1.0200200,-0.9989495,-0.0456296,-0.0002307,0.0041389,,,,0.0000000,0.0000000,0.0000000,0.3679521,-7.2144885,-21.3936939,-0.0065908,0.0088855,0.0063146,0.1020020,0.0515432,0.0000000,0.0000000,0.0071253,0.0000000,0.0000000,0.0000000,0.0515432,0.0000000,0.0000000,0.0071253,0.0000000,0.0000000,0.0000000,0.0515432,0.0000000,0.0000000,0.0071253,0.0071253,0.0000000,0.0000000,0.0019750,0.0000000,0.0000000,0.0000000,0.0071253,0.0000000,0.0000000,0.0019750,0.0000000,0.0000000,0.0000000,0.0071253,0.0000000,0.0000000,0.0019750
40.2299860,0.9996500,,-0.9989357,-0.0459227,0.0001589,0.0042352,-0.0908298,-0.1961389,0.1876401,,,,0.3677986,-7.2142730,-21.3936043,-0.0087615,0.0126553,0.0025964,0.0199930,0.0518281,0.0000000,0.0000000,0.0071648,0.0000000,0.0000000,0.0000000,0.0518281,0.0000000,0.0000000,0.0071648,0.0000000,0.0000000,0.0000000,0.0518281,0.0000000,0.0000000,0.0071648,0.0071648,0.0000000,0.0000000,0.0019804,0.0000000,0.0000000,0.0000000,0.0071648,0.0000000,0.0000000,0.0019804,0.0000000,0.0000000,0.0000000,0.0071648,0.0000000,0.0000000,0.0019804
40.2428990,1.0997001,,-0.9989243,-0.0461714,0.0008153,0.0041155,0.3526030,-0.9604581,0.3462462,,,,0.3676692,-7.2137547,-21.3936291,-0.0030032,0.0344662,-0.0048531,0.0219940,0.0521433,0.0000000,0.0000000,0.0072085,0.0000000,0.0000000,0.0000000,0.0521433,0.0000000,0.0000000,0.0072085,0.0000000,0.0000000,0.0000000,0.0521433,0.0000000,0.0000000,0.0072085,0.0072085,0.0000000,0.0000000,0.0019865,0.0000000,0.0000000,0.0000000,0.0072085,0.0000000,0.0000000,0.0019865,0.0000000,0.0000000,0.0000000,0.0072085,0.0000000,0.0000000,0.0019865
40.2639920,1.0501500,,-0.9989096,-0.0464817,0.0014204,0.0040252,0.7162337,-0.3092085,0.6381958,,,,0.3677567,-7.2129469,-21.3938713,0.0113288,0.0424354,-0.0182406,0.0210030,0.0524461,0.0000000,0.0000000,0.0072502,0.0000000,0.0000000,0.0000000,0.0524461,0.0000000,0.0000000,0.0072502,0.0000000,0.0000000,0.0000000,0.0524461,0.0000000,0.0000000,0.0072502,0.0072502,0.0000000,0.0000000,0.0019922,0.0000000,0.0000000,0.0000000,0.0072502,0.0000000,0.0000000,0.0019922,0.0000000,0.0000000,0.0000000,0.0072502,0.0000000,0.0000000,0.0019922
40.2863710,1.0505000,,-0.9988973,-0.0467344,0.0017240,0.0040647,0.4717720,-0.2050956,0.6945709,,,,0.3680936,-7.2119994,-21.3944073,0.0207393,0.0477672,-0.0328276,0.0210100,0.0527508,0.0000000,0.0000000,0.0072922,0.0000000,0.0000000,0.0000000,0.0527508,0.0000000,0.0000000,0.0072922,0.0000000,0.0000000,0.0000000,0.0527508,0.0000000,0.0000000,0.0072922,0.0072922,0.0000000,0.0000000,0.0019980,0.0000000,0.0000000,0.0000000,0.0072922,0.0000000,0.0000000,0.0019980,0.0000000,0.0000000,0.0000000,0.0072922,0.0000000,0.0000000,0.0019980
40.3082470,,1.0000600,-0.9988900,-0.0468842,0.0014818,0.0042471,,,,0.0000000,0.0000000,0.0000000,0.3680897,-7.2120676,-21.3943882,0.0207387,0.0477578,-0.0328249,0.1000060,0.0513093,0.0000000,0.0000000,0.0070929,0.0000000,0.0000000,0.0000000,0.0513093,0.0000000,0.0000000,0.0070929,0.0000000,0.0000000,0.0000000,0.0513093,0.0000000,0.0000000,0.0070929,0.0070929,0.0000000,0.0000000,0.0019705,0.0000000,0.0000000,0.0000000,0.0070929,0.0000000,0.0000000,0.0019705,0.0000000,0.0000000,0.0000000,0.0070929,0.0000000,0.0000000,0.0019705
40.3220970,1.0498000,,-0.9988900,-0.0468842,0.0014818,0.0042471,0.1224140,-0.6368801,-0.1861771,,,,0.3685390,-7.2109227,-21.3950348,0.0220585,0.0612786,-0.0288074,0.0209960,0.0516072,0.0000000,0.0000000,0.0071343,0.0000000,0.0000000,0.0000000,0.0516072,0.0000000,0.0000000,0.0071343,0.0000000,0.0000000,0.0000000,0.0516072,0.0000000,0.0000000,0.0071343,0.0071343,0.0000000,0.0000000,0.0019762,0.0000000,0.0000000,0.0000000,0.0071343,0.0000000,0.0000000,0.0019762,0.0000000,0.0000000,0.0000000,0.0071343,0.0000000,0.0000000,0.0019762
40.3370040,1.5495499,,-0.9988875,-0.0469433,0.0013030,0.0042530,0.3824427,-1.0572935,-0.5655159,,,,0.3693586,-7.2085032,-21.3956528,0.0308385,0.0948645,-0.0110259,0.0309910,0.0520494,0.0000000,0.0000000,0.0071957,0.0000000,0.0000000,0.0000000,0.0520494,0.0000000,0.0000000,0.0071957,0.0000000,0.0000000,0.0000000,0.0520494,0.0000000,0.0000000,0.0071957,0.0071957,0.0000000,0.0000000,0.0019847,0.0000000,0.0000000,0.0000000,0.0071957,0.0000000,0.0000000,0.0019847,0.0000000,0.0000000,0.0000000,0.0071957,0.0000000,0.0000000,0.0019847
40.3579690,1.0500500,,-0.9988837,-0.0470453,0.0015006,0.0039468,0.1614972,-0.4770721,-1.1775486,,,,0.3700327,-7.2064052,-21.3956242,0.0333569,0.1049661,0.0137744,0.0210010,0.0523516,0.0000000,0.0000000,0.0072374,0.0000000,0.0000000,0.0000000,0.0523516,0.0000000,0.0000000,0.0072374,0.0000000,0.0000000,0.0000000,0.0523516,0.0000000,0.0000000,0.0072374,0.0072374,0.0000000,0.0000000,0.0019905,0.0000000,0.0000000,0.0000000,0.0072374,0.0000000,0.0000000,0.0019905,0.0000000,0.0000000,0.0000000,0.0072374,0.0000000,0.0000000,0.0019905
40.3805230,1.0506001,,-0.9989098,-0.0465012,0.0017938,0.0036016,-0.1790323,-0.7058898,-0.6080691,,,,0.3706803,-7.2040491,-21.3951988,0.0282837,0.1192944,0.0266722,0.0210120,0.0526558,0.0000000,0.0000000,0.0072793,0.0000000,0.0000000,0.0000000,0.0526558,0.0000000,0.0000000,0.0072793,0.0000000,0.0000000,0.0000000,0.0526558,0.0000000,0.0000000,0.0072793,0.0072793,0.0000000,0.0000000,0.0019963,0.0000000,0.0000000,0.0000000,0.0072793,0.0000000,0.0000000,0.0019963,0.0000000,0.0000000,0.0000000,0.0072793,0.0000000,0.0000000,0.0019963
40.4002520,0.9997000,,-0.9989236,-0.0462040,0.0021057,0.0034510,-0.0669865,-0.4257064,-0.1644014,,,,0.3712248,-7.2015805,-21.3946323,0.0261794,0.1276237,0.0300246,0.0199940,0.0529468,0.0000000,0.0000000,0.0073192,0.0000000,0.0000000,0.0000000,0.0529468,0.0000000,0.0000000,0.0073192,0.0000000,0.0000000,0.0000000,0.0529468,0.0000000,0.0000000,0.0073192,0.0073192,0.0000000,0.0000000,0.0020017,0.0000000,0.0000000,0.0000000,0.0073192,0.0000000,0.0000000,0.0020017,0.0000000,0.0000000,0.0000000,0.0073192,0.0000000,0.0000000,0.0020017
40.4175880,,1.0199400,-0.9989236,-0.0462040,0.0026152,0.0034646,,,,-0.8223038,-0.1465510,0.0027398,0.3485880,-7.2058873,-21.3945503,0.0230502,0.1270284,0.0300360,0.1019940,0.0514948,0.0000000,0.0000000,0.0071185,0.0000000,0.0000000,0.0000000,0.0514948,0.0000000,0.0000000,0.0071185,0.0000000,0.0000000,0.0000000,0.0514948,0.0000000,0.0000000,0.0071185,0.0071185,0.0000000,0.0000000,0.0019740,0.0000000,0.0000000,0.0000000,0.0071185,0.0000000,0.0000000,0.0019740,0.0000000,0.0000000,0.0000000,0.0071185,0.0000000,0.0000000,0.0019740
40.4308970,1.0000501,,-0.9989285,-0.0460691,0.0026152,0.0034646,-0.1098711,-0.4387214,0.3306259,,,,0.3490188,-7.2032609,-21.3940144,0.0200178,0.1356077,0.0234970,0.0200010,0.0517796,0.0000000,0.0000000,0.0071581,0.0000000,0.0000000,0.0000000,0.0517796,0.0000000,0.0000000,0.0071581,0.0000000,0.0000000,0.0000000,0.0517796,0.0000000,0.0000000,0.0071581,0.0071581,0.0000000,0.0000000,0.0019795,0.0000000,0.0000000,0.0000000,0.0071581,0.0000000,0.0000000,0.0019795,0.0000000,0.0000000,0.0000000,0.0071581,0.0000000,0.0000000,0.0019795
40.4441410,1.2499000,,-0.9989477,-0.0456511,0.0027659,0.0033683,0.2054023,-0.2347568,0.3691551,,,,0.3495757,-7.1997914,-21.3935413,0.0245420,0.1419797,0.0142834,0.0249980,0.0521375,0.0000000,0.0000000,0.0072076,0.0000000,0.0000000,0.0000000,0.0521375,0.0000000,0.0000000,0.0072076,0.0000000,0.0000000,0.0000000,0.0521375,0.0000000,0.0000000,0.0072076,0.0072076,0.0000000,0.0000000,0.0019863,0.0000000,0.0000000,0.0000000,0.0072076,0.0000000,0.0000000,0.0019863,0.0000000,0.0000000,0.0000000,0.0072076,0.0000000,0.0000000,0.0019863
40.4652860,0.9999500,,-0.9989525,-0.0455378,0.0029524,0.0033416,0.2370395,-0.3807680,0.4841228,,,,0.3501062,-7.1968713,-21.3933525,0.0285101,0.1500564,0.0046282,0.0199990,0.0524258,0.0000000,0.0000000,0.0072474,0.0000000,0.0000000,0.0000000,0.0524258,0.0000000,0.0000000,0.0072474,0.0000000,0.0000000,0.0000000,0.0524258,0.0000000,0.0000000,0.0072474,0.0072474,0.0000000,0.0000000,0.0019918,0.0000000,0.0000000,0.0000000,0.0072474,0.0000000,0.0000000,0.0019918,0.0000000,0.0000000,0.0000000,0.0072474,0.0000000,0.0000000,0.0019918
40.4852860,1.0002000,,-0.9989582,-0.0454225,0.0029922,0.0031721,0.1558428,-0.1913911,0.2466848,,,,0.3507038,-7.1938281,-21.3933086,0.0312364,0.1541820,-0.0002987,0.0200040,0.0527157,0.0000000,0.0000000,0.0072873,0.0000000,0.0000000,0.0000000,0.0527157,0.0000000,0.0000000,0.0072873,0.0000000,0.0000000,0.0000000,0.0527157,0.0000000,0.0000000,0.0072873,0.0072873,0.0000000,0.0000000,0.0019973,0.0000000,0.0000000,0.0000000,0.0072873,0.0000000,0.0000000,0.0019973,0.0000000,0.0000000,0.0000000,0.0072873,0.0000000,0.0000000,0.0019973
40.5041440,0.9998500,,-0.9989545,-0.0455458,0.0028637,0.0025839,0.1840844,0.2711715,0.3296336,,,,0.3513696,-7.1907954,-21.3933811,0.0353563,0.1491493,-0.0069398,0.0199970,0.0530072,0.0000000,0.0000000,0.0073273,0.0000000,0.0000000,0.0000000,0.0530072,0.0000000,0.0000000,0.0073273,0.0000000,0.0000000,0.0000000,0.0530072,0.0000000,0.0000000,0.0073273,0.0073273,0.0000000,0.0000000,0.0020028,0.0000000,0.0000000,0.0000000,0.0073273,0.0000000,0.0000000,0.0020028,0.0000000,0.0000000,0.0000000,0.0073273,0.0000000,0.0000000,0.0020028
40.5210340,,1.0000100,-0.9989545,-0.0455458,0.0028637,0.0020911,,,,-0.6727664,-0.0863245,0.0035845,0.3328229,-7.1935797,-21.3933144,0.0327925,0.1487644,-0.0069307,0.1000010,0.0515519,0.0000000,0.0000000,0.0071261,0.0000000,0.0000000,0.0000000,0.0515519,0.0000000,0.0000000,0.0071261,0.0000000,0.0000000,0.0000000,0.0515519,0.0000000,0.0000000,0.0071261,0.0071261,0.0000000,0.0000000,0.0019750,0.0000000,0.0000000,0.0000000,0.0071261,0.0000000,0.0000000,0.0019750,0.0000000,0.0000000,0.0000000,0.0071261,0.0000000,0.0000000,0.0019750
40.5350410,1.0003500,,-0.9989470,-0.0457098,0.0032381,0.0020911,-0.0667713,0.2572212,0.2109441,,,,0.3334701,-7.1906557,-21.3934956,0.0319041,0.1435341,-0.0111655,0.0200070,0.0518370,0.0000000,0.0000000,0.0071657,0.0000000,0.0000000,0.0000000,0.0518370,0.0000000,0.0000000,0.0071657,0.0000000,0.0000000,0.0000000,0.0518370,0.0000000,0.0000000,0.0071657,0.0071657,0.0000000,0.0000000,0.0019805,0.0000000,0.0000000,0.0000000,0.0071657,0.0000000,0.0000000,0.0019805,0.0000000,0.0000000,0.0000000,0.0071657,0.0000000,0.0000000,0.0019805
40.5479580,1.1993501,,-0.9989516,-0.0456313,0.0032670,0.0014830,-0.1370615,0.3918476,0.3129840,,,,0.3342058,-7.1873283,-21.3938541,0.0294369,0.1338943,-0.0186825,0.0239870,0.0521808,0.0000000,0.0000000,0.0072133,0.0000000,0.0000000,0.0000000,0.0521808,0.0000000,0.0000000,0.0072133,0.0000000,0.0000000,0.0000000,0.0521808,0.0000000,0.0000000,0.0072133,0.0072133,0.0000000,0.0000000,0.0019871,0.0000000,0.0000000,0.0000000,0.0072133,0.0000000,0.0000000,0.0019871,0.0000000,0.0000000,0.0000000,0.0072133,0.0000000,0.0000000,0.0019871
40.5690310,1.0502001,,-0.9989524,-0.0456298,0.0032497,0.0009087,-0.1685826,0.3297129,-0.0495703,,,,0.3347938,-7.1845918,-21.3942356,0.0265490,0.1266735,-0.0176333,0.0210040,0.0524838,0.0000000,0.0000000,0.0072551,0.0000000,0.0000000,0.0000000,0.0524838,0.0000000,0.0000000,0.0072551,0.0000000,0.0000000,0.0000000,0.0524838,0.0000000,0.0000000,0.0072551,0.0072551,0.0000000,0.0000000,0.0019928,0.0000000,0.0000000,0.0000000,0.0072551,0.0000000,0.0000000,0.0019928,0.0000000,0.0000000,0.0000000,0.0072551,0.0000000,0.0000000,0.0019928
40.5911660,1.0504500,,-0.9989504,-0.0456940,0.0030749,0.0006355,-0.0252551,0.2627645,-0.1068240,,,,0.3353514,-7.1819887,-21.3945827,0.0265385,0.1211254,-0.0153944,0.0210090,0.0527887,0.0000000,0.0000000,0.0072970,0.0000000,0.0000000,0.0000000,0.0527887,0.0000000,0.0000000,0.0072970,0.0000000,0.0000000,0.0000000,0.0527887,0.0000000,0.0000000,0.0072970,0.0072970,0.0000000,0.0000000,0.0019986,0.0000000,0.0000000,0.0000000,0.0072970,0.0000000,0.0000000,0.0019986,0.0000000,0.0000000,0.0000000,0.0072970,0.0000000,0.0000000,0.0019986
40.6114120,,1.0099699,-0.9989432,-0.0458549,0.0030799,0.0003941,,,,-0.0676776,-0.0067015,0.0004131,0.3334317,-7.1824889,-21.3945370,0.0000000,0.0000000,0.0000000,0.1009970,0.0513452,0.0000000,0.0000000,0.0070975,0.0000000,0.0000000,0.0000000,0.0513452,0.0000000,0.0000000,0.0070975,0.0000000,0.0000000,0.0000000,0.0513452,0.0000000,0.0000000,0.0070975,0.0070975,0.0000000,0.0000000,0.0019710,0.0000000,0.0000000,0.0000000,0.0070975,0.0000000,0.0000000,0.0019710,0.0000000,0.0000000,0.0000000,0.0070975,0.0000000,0.0000000,0.0019710
40.6241020,1.0001501,,-0.9989432,-0.0458549,0.0030799,0.0003941,-0.0078363,0.1912501,-0.0670915,,,,0.3334317,-7.1824889,-21.3945370,0.0000000,0.0000000,0.0000000,0.0200030,0.0516291,0.0000000,0.0000000,0.0071369,0.0000000,0.0000000,0.0000000,0.0516291,0.0000000,0.0000000,0.0071369,0.0000000,0.0000000,0.0000000,0.0516291,0.0000000,0.0000000,0.0071369,0.0071369,0.0000000,0.0000000,0.0019765,0.0000000,0.0000000,0.0000000,0.0071369,0.0000000,0.0000000,0.0019765,0.0000000,0.0000000,0.0000000,0.0071369,0.0000000,0.0000000,0.0019765
40.6390490,1.4492500,,-0.0000006,0.0000265,0.0001826,0.0004139,-0.0421948,0.0621167,-0.0271981,,,,0.3334317,-7.1824889,-21.3945370,0.0000000,0.0000000,0.0000000,0.0289850,0.0520429,0.0000000,0.0000000,0.0071943,0.0000000,0.0000000,0.0000000,0.0520429,0.0000000,0.0000000,0.0071943,0.0000000,0.0000000,0.0000000,0.0520429,0.0000000,0.0000000,0.0071943,0.0071943,0.0000000,0.0000000,0.0019845,0.0000000,0.0000000,0.0000000,0.0071943,0.0000000,0.0000000,0.0019845,0.0000000,0.0000000,0.0000000,0.0071943,0.0000000,0.0000000,0.0019845
40.6587600,1.0002000,,0.4994711,0.0229494,-0.0012422,0.0009230,0.0133722,0.1147147,-0.0006672,,,,0.3334317,-7.1824889,-21.3945370,0.0000000,0.0000000,0.0000000,0.0200040,0.0523307,0.0000000,0.0000000,0.0072341,0.0000000,0.0000000,0.0000000,0.0523307,0.0000000,0.0000000,0.0072341,0.0000000,0.0000000,0.0000000,0.0523307,0.0000000,0.0000000,0.0072341,0.0072341,0.0000000,0.0000000,0.0019900,0.0000000,0.0000000,0.0000000,0.0072341,0.0000000,0.0000000,0.0019900,0.0000000,0.0000000,0.0000000,0.0072341,0.0000000,0.0000000,0.0019900
40.6786200,0.9999000,,0.7491970,0.0346023,-0.0019669,0.0016990,0.0087613,0.0564800,-0.0003412,,,,0.3334317,-7.1824889,-21.3945370,0.0000000,0.0000000,0.0000000,0.0199980,0.0526200,0.0000000,0.0000000,0.0072739,0.0000000,0.0000000,0.0000000,0.0526200,0.0000000,0.0000000,0.0072739,0.0000000,0.0000000,0.0000000,0.0526200,0.0000000,0.0000000,0.0072739,0.0072739,0.0000000,0.0000000,0.0019954,0.0000000,0.0000000,0.0000000,0.0072739,0.0000000,0.0000000,0.0019954,0.0000000,0.0000000,0.0000000,0.0072739,0.0000000,0.0000000,0.0019954
40.6997510,1.0499500,,0.8740601,0.0404288,-0.0023122,0.0020629,0.0054411,0.0220373,0.0047046,,,,0.3334317,-7.1824889,-21.3945370,0.0000000,0.0000000,0.0000000,0.0209990,0.0529255,0.0000000,0.0000000,0.0073159,0.0000000,0.0000000,0.0000000,0.0529255,0.0000000,0.0000000,0.0073159,0.0000000,0.0000000,0.0000000,0.0529255,0.0000000,0.0000000,0.0073159,0.0073159,0.0000000,0.0000000,0.0020012,0.0000000,0.0000000,0.0000000,0.0073159,0.0000000,0.0000000,0.0020012,0.0000000,0.0000000,0.0000000,0.0073159,0.0000000,0.0000000,0.0020012
40.7160400,,1.0200200,0.8740601,0.0404288,-0.0023122,0.0020629,,,,-0.0013550,-0.0001013,0.0000058,0.3333946,-7.1824918,-21.3945370,-0.0000051,-0.0000004,0.0000000,0.1020020,0.0514747,0.0000000,0.0000000,0.0071153,0.0000000,0.0000000,0.0000000,0.0514747,0.0000000,0.0000000,0.0071153,0.0000000,0.0000000,0.0000000,0.0514747,0.0000000,0.0000000,0.0071153,0.0071153,0.0000000,0.0000000,0.0019735,0.0000000,0.0000000,0.0000000,0.0071153,0.0000000,0.0000000,0.0019735,0.0000000,0.0000000,0.0000000,0.0071153,0.0000000,0.0000000,0.0019735
40.7286670,1.0999500,,0.9364918,0.0433422,-0.0024806,0.0021857,0.0001037,0.0015124,0.0045419,,,,0.3333946,-7.1824918,-21.3945370,0.0000000,0.0000000,0.0000000,0.0219990,0.0517877,0.0000000,0.0000000,0.0071588,0.0000000,0.0000000,0.0000000,0.0517877,0.0000000,0.0000000,0.0071588,0.0000000,0.0000000,0.0000000,0.0517877,0.0000000,0.0000000,0.0071588,0.0071588,0.0000000,0.0000000,0.0019795,0.0000000,0.0000000,0.0000000,0.0071588,0.0000000,0.0000000,0.0019795,0.0000000,0.0000000,0.0000000,0.0071588,0.0000000,0.0000000,0.0019795
40.7419500,0.9999500,,0.9677078,0.0447989,-0.0025210,0.0022255,0.0105346,0.0003213,0.0059254,,,,0.3333946,-7.1824918,-21.3945370,0.0000000,0.0000000,0.0000000,0.0199990,0.0520740,0.0000000,0.0000000,0.0071984,0.0000000,0.0000000,0.0000000,0.0520740,0.0000000,0.0000000,0.0071984,0.0000000,0.0000000,0.0000000,0.0520740,0.0000000,0.0000000,0.0071984,0.0071984,0.0000000,0.0000000,0.0019850,0.0000000,0.0000000,0.0000000,0.0071984,0.0000000,0.0000000,0.0019850,0.0000000,0.0000000,0.0000000,0.0071984,0.0000000,0.0000000,0.0019850
40.7619160,1.0000501,,0.9833159,0.0455274,-0.0025132,0.0021781,0.0117752,-0.0055080,0.0051524,,,,0.3333946,-7.1824918,-21.3945370,0.0000000,0.0000000,0.0000000,0.0200010,0.0523620,0.0000000,0.0000000,0.0072382,0.0000000,0.0000000,0.0000000,0.0523620,0.0000000,0.0000000,0.0072382,0.0000000,0.0000000,0.0000000,0.0523620,0.0000000,0.0000000,0.0072382,0.0072382,0.0000000,0.0000000,0.0019905,0.0000000,0.0000000,0.0000000,0.0072382,0.0000000,0.0000000,0.0019905,0.0000000,0.0000000,0.0000000,0.0072382,0.0000000,0.0000000,0.0019905
40.7818340,1.0006001,,0.9911203,0.0458917,-0.0024854,0.0020798,0.0108772,-0.0102308,0.0003713,,,,0.3333946,-7.1824918,-21.3945370,0.0000000,0.0000000,0.0000000,0.0200120,0.0526517,0.0000000,0.0000000,0.0072781,0.0000000,0.0000000,0.0000000,0.0526517,0.0000000,0.0000000,0.0072781,0.0000000,0.0000000,0.0000000,0.0526517,0.0000000,0.0000000,0.0072781,0.0072781,0.0000000,0.0000000,0.0019960,0.0000000,0.0000000,0.0000000,0.0072781,0.0000000,0.0000000,0.0019960,0.0000000,0.0000000,0.0000000,0.0072781,0.0000000,0.0000000,0.0019960
40.8027250,1.0495000,,0.9950227,0.0460741,-0.0024260,0.0019516,0.0142353,-0.0085334,-0.0049489,,,,0.3333946,-7.1824918,-21.3945370,0.0000000,0.0000000,0.0000000,0.0209900,0.0529572,0.0000000,0.0000000,0.0073200,0.0000000,0.0000000,0.0000000,0.0529572,0.0000000,0.0000000,0.0073200,0.0000000,0.0000000,0.0000000,0.0529572,0.0000000,0.0000000,0.0073200,0.0073200,0.0000000,0.0000000,0.0020018,0.0000000,0.0000000,0.0000000,0.0073200,0.0000000,0.0000000,0.0020018,0.0000000,0.0000000,0.0000000,0.0073200,0.0000000,0.0000000,0.0020018
40.8191370,,1.0000100,0.9950227,0.0460741,-0.0024260,0.0019516,,,,-0.0000271,-0.0000027,0.0000001,0.3333938,-7.1824918,-21.3945370,-0.0000001,-0.0000000,0.0000000,0.1000010,0.0515047,0.0000000,0.0000000,0.0071192,0.0000000,0.0000000,0.0000000,0.0515047,0.0000000,0.0000000,0.0071192,0.0000000,0.0000000,0.0000000,0.0515047,0.0000000,0.0000000,0.0071192,0.0071192,0.0000000,0.0000000,0.0019740,0.0000000,0.0000000,0.0000000,0.0071192,0.0000000,0.0000000,0.0019740,0.0000000,0.0000000,0.0000000,0.0071192,0.0000000,0.0000000,0.0019740
40.8338160,1.0000501,,0.9969740,0.0461654,-0.0023954,0.0018259,0.0049204,-0.0095157,-0.0034587,,,,0.3333938,-7.1824918,-21.3945370,0.0000000,0.0000000,0.0000000,0.0200010,0.0517894,0.0000000,0.0000000,0.0071588,0.0000000,0.0000000,0.0000000,0.0517894,0.0000000,0.0000000,0.0071588,0.0000000,0.0000000,0.0000000,0.0517894,0.0000000,0.0000000,0.0071588,0.0071588,0.0000000,0.0000000,0.0019795,0.0000000,0.0000000,0.0000000,0.0071588,0.0000000,0.0000000,0.0019795,0.0000000,0.0000000,0.0000000,0.0071588,0.0000000,0.0000000,0.0019795
40.8467600,1.1998000,,0.9979497,0.0462110,-0.0023610,0.0017392,0.0082814,-0.0060549,0.0024134,,,,0.3333938,-7.1824918,-21.3945370,0.0000000,0.0000000,0.0000000,0.0239960,0.0521330,0.0000000,0.0000000,0.0072063,0.0000000,0.0000000,0.0000000,0.0521330,0.0000000,0.0000000,0.0072063,0.0000000,0.0000000,0.0000000,0.0521330,0.0000000,0.0000000,0.0072063,0.0072063,0.0000000,0.0000000,0.0019861,0.0000000,0.0000000,0.0000000,0.0072063,0.0000000,0.0000000,0.0019861,0.0000000,0.0000000,0.0000000,0.0072063,0.0000000,0.0000000,0.0019861
40.8670170,1.0001000,,0.9984377,0.0462339,-0.0023224,0.0016617,0.0086955,-0.0057206,-0.0017306,,,,0.3333938,-7.1824918,-21.3945370,0.0000000,0.0000000,0.0000000,0.0200020,0.0524213,0.0000000,0.0000000,0.0072461,0.0000000,0.0000000,0.0000000,0.0524213,0.0000000,0.0000000,0.0072461,0.0000000,0.0000000,0.0000000,0.0524213,0.0000000,0.0000000,0.0072461,0.0072461,0.0000000,0.0000000,0.0019916,0.0000000,0.0000000,0.0000000,0.0072461,0.0000000,0.0000000,0.0019916,0.0000000,0.0000000,0.0000000,0.0072461,0.0000000,0.0000000,0.0019916
40.8869760,1.0002000,,0.9986818,0.0462454,-0.0022669,0.0015898,0.0110234,-0.0108635,0.0023085,,,,0.3333938,-7.1824918,-21.3945370,0.0000000,0.0000000,0.0000000,0.0200040,0.0527112,0.0000000,0.0000000,0.0072860,0.0000000,0.0000000,0.0000000,0.0527112,0.0000000,0.0000000,0.0072860,0.0000000,0.0000000,0.0000000,0.0527112,0.0000000,0.0000000,0.0072860,0.0072860,0.0000000,0.0000000,0.0019970,0.0000000,0.0000000,0.0000000,0.0072860,0.0000000,0.0000000,0.0019970,0.0000000,0.0000000,0.0000000,0.0072860,0.0000000,0.0000000,0.0019970
40.9068860,1.0000000,,0.9988040,0.0462512,-0.0022315,0.0015413,0.0038714,-0.0082852,0.0099433,,,,0.3333938,-7.1824918,-21.3945370,0.0000000,0.0000000,0.0000000,0.0200000,0.0530026,0.0000000,0.0000000,0.0073260,0.0000000,0.0000000,0.0000000,0.0530026,0.0000000,0.0000000,0.0073260,0.0000000,0.0000000,0.0000000,0.0530026,0.0000000,0.0000000,0.0073260,0.0073260,0.0000000,0.0000000,0.0020025,0.0000000,0.0000000,0.0000000,0.0073260,0.0000000,0.0000000,0.0020025,0.0000000,0.0000000,0.0000000,0.0073260,0.0000000,0.0000000,0.0020025
40.9244440,,1.0000900,0.9988040,0.0462512,-0.0022315,0.0014903,,,,-0.0000005,-0.0000001,0.0000000,0.3333938,-7.1824918,-21.3945370,-0.0000000,-0.0000000,0.0000000,0.1000090,0.0515476,0.0000000,0.0000000,0.0071249,0.0000000,0.0000000,0.0000000,0.0515476,0.0000000,0.0000000,0.0071249,0.0000000,0.0000000,0.0000000,0.0515476,0.0000000,0.0000000,0.0071249,0.0071249,0.0000000,0.0000000,0.0019747,0.0000000,0.0000000,0.0000000,0.0071249,0.0000000,0.0000000,0.0019747,0.0000000,0.0000000,0.0000000,0.0071249,0.0000000,0.0000000,0.0019747
40.9376470,0.9997000,,0.9988651,0.0462541,-0.0021954,0.0014903,0.0014779,-0.0062101,0.0015537,,,,0.3333938,-7.1824918,-21.3945370,0.0000000,0.0000000,0.0000000,0.0199940,0.0518325,0.0000000,0.0000000,0.0071644,0.0000000,0.0000000,0.0000000,0.0518325,0.0000000,0.0000000,0.0071644,0.0000000,0.0000000,0.0000000,0.0518325,0.0000000,0.0000000,0.0071644,0.0071644,0.0000000,0.0000000,0.0019802,0.0000000,0.0000000,0.0000000,0.0071644,0.0000000,0.0000000,0.0019802,0.0000000,0.0000000,0.0000000,0.0071644,0.0000000,0.0000000,0.0019802
40.9508120,1.2000000,,0.9988958,0.0462557,-0.0021773,0.0014067,0.0014943,-0.0070113,-0.0124067,,,,0.3333938,-7.1824918,-21.3945370,0.0000000,0.0000000,0.0000000,0.0240000,0.0521764,0.0000000,0.0000000,0.0072120,0.0000000,0.0000000,0.0000000,0.0521764,0.0000000,0.0000000,0.0072120,0.0000000,0.0000000,0.0000000,0.0521764,0.0000000,0.0000000,0.0072120,0.0072120,0.0000000,0.0000000,0.0019868,0.0000000,0.0000000,0.0000000,0.0072120,0.0000000,0.0000000,0.0019868,0.0000000,0.0000000,0.0000000,0.0072120,0.0000000,0.0000000,0.0019868
40.9722010,1.0001000,,0.9989111,0.0462565,-0.0021378,0.0013397,-0.0007559,-0.0056495,-0.0059592,,,,0.3333938,-7.1824918,-21.3945370,0.0000000,0.0000000,0.0000000,0.0200020,0.0524649,0.0000000,0.0000000,0.0072518,0.0000000,0.0000000,0.0000000,0.0524649,0.0000000,0.0000000,0.0072518,0.0000000,0.0000000,0.0000000,0.0524649,0.0000000,0.0000000,0.0072518,0.0072518,0.0000000,0.0000000,0.0019923,0.0000000,0.0000000,0.0000000,0.0072518,0.0000000,0.0000000,0.0019923,0.0000000,0.0000000,0.0000000,0.0072518,0.0000000,0.0000000,0.0019923
40.9909710,1.0002501,,0.9989189,0.0462570,-0.0021182,0.0012661,-0.0057872,-0.0017185,-0.0068859,,,,0.3333938,-7.1824918,-21.3945370,0.0000000,0.0000000,0.0000000,0.0200050,0.0527551,0.0000000,0.0000000,0.0072917,0.0000000,0.0000000,0.0000000,0.0527551,0.0000000,0.0000000,0.0072917,0.0000000,0.0000000,0.0000000,0.0527551,0.0000000,0.0000000,0.0072917,0.0072917,0.0000000,0.0000000,0.0019978,0.0000000,0.0000000,0.0000000,0.0072917,0.0000000,0.0000000,0.0019978,0.0000000,0.0000000,0.0000000,0.0072917,0.0000000,0.0000000,0.0019978
41.0133000,,0.9998900,0.9989228,0.0462573,-0.0021010,0.0011980,,,,-0.0000000,-0.0000000,0.0000000,0.3333938,-7.1824918,-21.3945370,0.0000000,0.0000000,0.0000000,0.0999890,0.0513134,0.0000000,0.0000000,0.0070925,0.0000000,0.0000000,0.0000000,0.0513134,0.0000000,0.0000000,0.0070925,0.0000000,0.0000000,0.0000000,0.0513134,0.0000000,0.0000000,0.0070925,0.0070925,0.0000000,0.0000000,0.0019703,0.0000000,0.0000000,0.0000000,0.0070925,0.0000000,0.0000000,0.0019703,0.0000000,0.0000000,0.0000000,0.0070925,0.0000000,0.0000000,0.0019703
41.0270470,1.0000501,,0.9989228,0.0462573,-0.0021010,0.0011980,-0.0029546,-0.0070162,-0.0134527,,,,0.3333938,-7.1824918,-21.3945370,0.0000000,0.0000000,0.0000000,0.0200010,0.0515971,0.0000000,0.0000000,0.0071319,0.0000000,0.0000000,0.0000000,0.0515971,0.0000000,0.0000000,0.0071319,0.0000000,0.0000000,0.0000000,0.0515971,0.0000000,0.0000000,0.0071319,0.0071319,0.0000000,0.0000000,0.0019757,0.0000000,0.0000000,0.0000000,0.0071319,0.0000000,0.0000000,0.0019757,0.0000000,0.0000000,0.0000000,0.0071319,0.0000000,0.0000000,0.0019757
41.0397010,1.4500500,,0.9989249,0.0462576,-0.0020625,0.0010842,0.0037641,-0.0077958,-0.0062381,,,,0.3333938,-7.1824918,-21.3945370,0.0000000,0.0000000,0.0000000,0.0290010,0.0520108,0.0000000,0.0000000,0.0071893,0.0000000,0.0000000,0.0000000,0.0520108,0.0000000,0.0000000,0.0071893,0.0000000,0.0000000,0.0000000,0.0520108,0.0000000,0.0000000,0.0071893,0.0071893,0.0000000,0.0000000,0.0019837,0.0000000,0.0000000,0.0000000,0.0071893,0.0000000,0.0000000,0.0019837,0.0000000,0.0000000,0.0000000,0.0071893,0.0000000,0.0000000,0.0019837
41.0599640,0.9997500,,0.9989260,0.0462578,-0.0020235,0.0009750,0.0112357,-0.0107720,-0.0031190,,,,0.3333938,-7.1824918,-21.3945370,0.0000000,0.0000000,0.0000000,0.0199950,0.0522983,0.0000000,0.0000000,0.0072290,0.0000000,0.0000000,0.0000000,0.0522983,0.0000000,0.0000000,0.0072290,0.0000000,0.0000000,0.0000000,0.0522983,0.0000000,0.0000000,0.0072290,0.0072290,0.0000000,0.0000000,0.0019892,0.0000000,0.0000000,0.0000000,0.0072290,0.0000000,0.0000000,0.0019892,0.0000000,0.0000000,0.0000000,0.0072290,0.0000000,0.0000000,0.0019892
41.0797520,1.0005500,,0.9989266,0.0462579,-0.0019856,0.0009120,0.0093181,-0.0102917,-0.0040009,,,,0.3333938,-7.1824918,-21.3945370,0.0000000,0.0000000,0.0000000,0.0200110,0.0525876,0.0000000,0.0000000,0.0072689,0.0000000,0.0000000,0.0000000,0.0525876,0.0000000,0.0000000,0.0072689,0.0000000,0.0000000,0.0000000,0.0525876,0.0000000,0.0000000,0.0072689,0.0072689,0.0000000,0.0000000,0.0019947,0.0000000,0.0000000,0.0000000,0.0072689,0.0000000,0.0000000,0.0019947,0.0000000,0.0000000,0.0000000,0.0072689,0.0000000,0.0000000,0.0019947
41.1007030,1.0494500,,0.9989270,0.0462580,-0.0019353,0.0008629,0.0058492,-0.0100210,-0.0000473,,,,0.3333938,-7.1824918,-21.3945370,0.0000000,0.0000000,0.0000000,0.0209890,0.0528928,0.0000000,0.0000000,0.0073108,0.0000000,0.0000000,0.0000000,0.0528928,0.0000000,0.0000000,0.0073108,0.0000000,0.0000000,0.0000000,0.0528928,0.0000000,0.0000000,0.0073108,0.0073108,0.0000000,0.0000000,0.0020004,0.0000000,0.0000000,0.0000000,0.0073108,0.0000000,0.0000000,0.0020004,0.0000000,0.0000000,0.0000000,0.0073108,0.0000000,0.0000000,0.0020004
41.1171340,,1.0201299,0.9989270,0.0462580,-0.0019353,0.0008629,,,,-0.0000000,-0.0000000,0.0000000,0.3333938,-7.1824918,-21.3945370,-0.0000000,-0.0000000,0.0000000,0.1020130,0.0514437,0.0000000,0.0000000,0.0071105,0.0000000,0.0000000,0.0000000,0.0514437,0.0000000,0.0000000,0.0071105,0.0000000,0.0000000,0.0000000,0.0514437,0.0000000,0.0000000,0.0071105,0.0071105,0.0000000,0.0000000,0.0019728,0.0000000,0.0000000,0.0000000,0.0071105,0.0000000,0.0000000,0.0019728,0.0000000,0.0000000,0.0000000,0.0071105,0.0000000,0.0000000,0.0019728
41.1319710,1.0999000,,0.9989272,0.0462581,-0.0018950,0.0008068,-0.0010427,-0.0064067,0.0029060,,,,0.3333938,-7.1824918,-21.3945370,0.0000000,0.0000000,0.0000000,0.0219980,0.0517565,0.0000000,0.0000000,0.0071540,0.0000000,0.0000000,0.0000000,0.0517565,0.0000000,0.0000000,0.0071540,0.0000000,0.0000000,0.0000000,0.0517565,0.0000000,0.0000000,0.0071540,0.0071540,0.0000000,0.0000000,0.0019788,0.0000000,0.0000000,0.0000000,0.0071540,0.0000000,0.0000000,0.0019788,0.0000000,0.0000000,0.0000000,0.0071540,0.0000000,0.0000000,0.0019788
41.1447280,1.1002500,,0.9989275,0.0462582,-0.0018562,0.0007439,0.0089010,-0.0118551,-0.0085568,,,,0.3333938,-7.1824918,-21.3945370,0.0000000,0.0000000,0.0000000,0.0220050,0.0520714,0.0000000,0.0000000,0.0071976,0.0000000,0.0000000,0.0000000,0.0520714,0.0000000,0.0000000,0.0071976,0.0000000,0.0000000,0.0000000,0.0520714,0.0000000,0.0000000,0.0071976,0.0071976,0.0000000,0.0000000,0.0019848,0.0000000,0.0000000,0.0000000,0.0071976,0.0000000,0.0000000,0.0019848,0.0000000,0.0000000,0.0000000,0.0071976,0.0000000,0.0000000,0.0019848
41.1650270,0.9998500,,0.9989276,0.0462583,-0.0018150,0.0006651,0.0091807,-0.0117945,-0.0098936,,,,0.3333938,-7.1824918,-21.3945370,0.0000000,0.0000000,0.0000000,0.0199970,0.0523592,0.0000000,0.0000000,0.0072373,0.0000000,0.0000000,0.0000000,0.0523592,0.0000000,0.0000000,0.0072373,0.0000000,0.0000000,0.0000000,0.0523592,0.0000000,0.0000000,0.0072373,0.0072373,0.0000000,0.0000000,0.0019903,0.0000000,0.0000000,0.0000000,0.0072373,0.0000000,0.0000000,0.0019903,0.0000000,0.0000000,0.0000000,0.0072373,0.0000000,0.0000000,0.0019903
41.1847010,1.0005500,,0.9989277,0.0462584,-0.0017741,0.0006046,0.0083059,-0.0095289,0.0011567,,,,0.3333938,-7.1824918,-21.3945370,0.0000000,0.0000000,0.0000000,0.0200110,0.0526489,0.0000000,0.0000000,0.0072772,0.0000000,0.0000000,0.0000000,0.0526489,0.0000000,0.0000000,0.0072772,0.0000000,0.0000000,0.0000000,0.0526489,0.0000000,0.0000000,0.0072772,0.0072772,0.0000000,0.0000000,0.0019958,0.0000000,0.0000000,0.0000000,0.0072772,0.0000000,0.0000000,0.0019958,0.0000000,0.0000000,0.0000000,0.0072772,0.0000000,0.0000000,0.0019958
41.2058020,1.0494001,,0.9989280,0.0462585,-0.0016811,0.0005317,0.0111338,-0.0068549,0.0071702,,,,0.3333938,-7.1824918,-21.3945370,0.0000000,0.0000000,0.0000000,0.0209880,0.0529543,0.0000000,0.0000000,0.0073192,0.0000000,0.0000000,0.0000000,0.0529543,0.0000000,0.0000000,0.0073192,0.0000000,0.0000000,0.0000000,0.0529543,0.0000000,0.0000000,0.0073192,0.0073192,0.0000000,0.0000000,0.0020016,0.0000000,0.0000000,0.0000000,0.0073192,0.0000000,0.0000000,0.0020016,0.0000000,0.0000000,0.0000000,0.0073192,0.0000000,0.0000000,0.0020016
41.2231850,,0.9999400,0.9989280,0.0462585,-0.0016811,0.0005317,,,,-0.0000000,-0.0000000,0.0000000,0.3333938,-7.1824918,-21.3945370,-0.0000000,-0.0000000,0.0000000,0.0999940,0.0515019,0.0000000,0.0000000,0.0071184,0.0000000,0.0000000,0.0000000,0.0515019,0.0000000,0.0000000,0.0071184,0.0000000,0.0000000,0.0000000,0.0515019,0.0000000,0.0000000,0.0071184,0.0071184,0.0000000,0.0000000,0.0019738,0.0000000,0.0000000,0.0000000,0.0071184,0.0000000,0.0000000,0.0019738,0.0000000,0.0000000,0.0000000,0.0071184,0.0000000,0.0000000,0.0019738
41.2369610,1.1000000,,0.9989281,0.0462586,-0.0016075,0.0004527,0.0102971,-0.0098285,-0.0010536,,,,0.3333938,-7.1824918,-21.3945370,0.0000000,0.0000000,0.0000000,0.0220000,0.0518151,0.0000000,0.0000000,0.0071619,0.0000000,0.0000000,0.0000000,0.0518151,0.0000000,0.0000000,0.0071619,0.0000000,0.0000000,0.0000000,0.0518151,0.0000000,0.0000000,0.0071619,0.0071619,0.0000000,0.0000000,0.0019799,0.0000000,0.0000000,0.0000000,0.0071619,0.0000000,0.0000000,0.0019799,0.0000000,0.0000000,0.0000000,0.0071619,0.0000000,0.0000000,0.0019799
41.2496570,1.1003500,,0.9989282,0.0462587,-0.0015390,0.0003956,0.0063922,-0.0066461,-0.0083393,,,,0.3333938,-7.1824918,-21.3945370,0.0000000,0.0000000,0.0000000,0.0220070,0.0521304,0.0000000,0.0000000,0.0072055,0.0000000,0.0000000,0.0000000,0.0521304,0.0000000,0.0000000,0.0072055,0.0000000,0.0000000,0.0000000,0.0521304,0.0000000,0.0000000,0.0072055,0.0072055,0.0000000,0.0000000,0.0019859,0.0000000,0.0000000,0.0000000,0.0072055,0.0000000,0.0000000,0.0019859,0.0000000,0.0000000,0.0000000,0.0072055,0.0000000,0.0000000,0.0019859
41.2700300,0.9996500,,0.9989283,0.0462588,-0.0014919,0.0003245,0.0017236,-0.0091214,-0.0034372,,,,0.3333938,-7.1824918,-21.3945370,0.0000000,0.0000000,0.0000000,0.0199930,0.0524185,0.0000000,0.0000000,0.0072453,0.0000000,0.0000000,0.0000000,0.0524185,0.0000000,0.0000000,0.0072453,0.0000000,0.0000000,0.0000000,0.0524185,0.0000000,0.0000000,0.0072453,0.0072453,0.0000000,0.0000000,0.0019914,0.0000000,0.0000000,0.0000000,0.0072453,0.0000000,0.0000000,0.0019914,0.0000000,0.0000000,0.0000000,0.0072453,0.0000000,0.0000000,0.0019914
41.2897480,1.0008000,,0.9989283,0.0462589,-0.0014788,0.0002416,-0.0032810,-0.0134337,-0.0019628,,,,0.3333938,-7.1824918,-21.3945370,0.0000000,0.0000000,0.0000000,0.0200160,0.0527085,0.0000000,0.0000000,0.0072852,0.0000000,0.0000000,0.0000000,0.0527085,0.0000000,0.0000000,0.0072852,0.0000000,0.0000000,0.0000000,0.0527085,0.0000000,0.0000000,0.0072852,0.0072852,0.0000000,0.0000000,0.0019969,0.0000000,0.0000000,0.0000000,0.0072852,0.0000000,0.0000000,0.0019969,0.0000000,0.0000000,0.0000000,0.0072852,0.0000000,0.0000000,0.0019969
41.3106520,1.0492001,,0.9989284,0.0462590,-0.0014493,0.0001208,0.0071028,-0.0117751,0.0073194,,,,0.3333938,-7.1824918,-21.3945370,0.0000000,0.0000000,0.0000000,0.0209840,0.0530143,0.0000000,0.0000000,0.0073272,0.0000000,0.0000000,0.0000000,0.0530143,0.0000000,0.0000000,0.0073272,0.0000000,0.0000000,0.0000000,0.0530143,0.0000000,0.0000000,0.0073272,0.0073272,0.0000000,0.0000000,0.0020026,0.0000000,0.0000000,0.0000000,0.0073272,0.0000000,0.0000000,0.0020026,0.0000000,0.0000000,0.0000000,0.0073272,0.0000000,0.0000000,0.0020026
41.3269780,,1.0200499,0.9989284,0.0462590,-0.0014493,0.0001208,,,,-0.0000000,-0.0000000,0.0000000,0.3333938,-7.1824918,-21.3945370,-0.0000000,-0.0000000,0.0000000,0.1020050,0.0515586,0.0000000,0.0000000,0.0071260,0.0000000,0.0000000,0.0000000,0.0515586,0.0000000,0.0000000,0.0071260,0.0000000,0.0000000,0.0000000,0.0515586,0.0000000,0.0000000,0.0071260,0.0071260,0.0000000,0.0000000,0.0019748,0.0000000,0.0000000,0.0000000,0.0071260,0.0000000,0.0000000,0.0019748,0.0000000,0.0000000,0.0000000,0.0071260,0.0000000,0.0000000,0.0019748
41.3406690,1.0000000,,-0.0000001,-0.0000001,-0.0000364,0.0000604,0.0049323,-0.0133873,0.0080542,,,,0.3333938,-7.1824918,-21.3945370,0.0000000,0.0000000,0.0000000,0.0200000,0.0518437,0.0000000,0.0000000,0.0071655,0.0000000,0.0000000,0.0000000,0.0518437,0.0000000,0.0000000,0.0071655,0.0000000,0.0000000,0.0000000,0.0518437,0.0000000,0.0000000,0.0071655,0.0071655,0.0000000,0.0000000,0.0019803,0.0000000,0.0000000,0.0000000,0.0071655,0.0000000,0.0000000,0.0019803,0.0000000,0.0000000,0.0000000,0.0071655,0.0000000,0.0000000,0.0019803
41.3540310,1.1502000,,-0.4994643,-0.0231297,0.0006593,0.0000566,0.0043125,-0.0121868,0.0040271,,,,0.3333938,-7.1824918,-21.3945370,0.0000000,0.0000000,0.0000000,0.0230040,0.0521733,0.0000000,0.0000000,0.0072111,0.0000000,0.0000000,0.0000000,0.0521733,0.0000000,0.0000000,0.0072111,0.0000000,0.0000000,0.0000000,0.0521733,0.0000000,0.0000000,0.0072111,0.0072111,0.0000000,0.0000000,0.0019866,0.0000000,0.0000000,0.0000000,0.0072111,0.0000000,0.0000000,0.0019866,0.0000000,0.0000000,0.0000000,0.0072111,0.0000000,0.0000000,0.0019866
41.3740320,1.0001000,,-0.7491964,-0.0346945,0.0010006,0.0000624,0.0054521,-0.0088858,0.0083612,,,,0.3333938,-7.1824918,-21.3945370,0.0000000,0.0000000,0.0000000,0.0200020,0.0524618,0.0000000,0.0000000,0.0072509,0.0000000,0.0000000,0.0000000,0.0524618,0.0000000,0.0000000,0.0072509,0.0000000,0.0000000,0.0000000,0.0524618,0.0000000,0.0000000,0.0072509,0.0072509,0.0000000,0.0000000,0.0019921,0.0000000,0.0000000,0.0000000,0.0072509,0.0000000,0.0000000,0.0019921,0.0000000,0.0000000,0.0000000,0.0072509,0.0000000,0.0000000,0.0019921
41.3938110,0.9997500,,-0.8740625,-0.0404770,0.0011300,0.0000923,0.0098443,-0.0076777,0.0068662,,,,0.3333938,-7.1824918,-21.3945370,0.0000000,0.0000000,0.0000000,0.0199950,0.0527518,0.0000000,0.0000000,0.0072908,0.0000000,0.0000000,0.0000000,0.0527518,0.0000000,0.0000000,0.0072908,0.0000000,0.0000000,0.0000000,0.0527518,0.0000000,0.0000000,0.0072908,0.0072908,0.0000000,0.0000000,0.0019976,0.0000000,0.0000000,0.0000000,0.0072908,0.0000000,0.0000000,0.0019976,0.0000000,0.0000000,0.0000000,0.0072908,0.0000000,0.0000000,0.0019976
41.4160900,,0.9998900,-0.9364956,-0.0433683,0.0011894,0.0001663,,,,-0.0000000,-0.0000000,0.0000000,0.3333938,-7.1824918,-21.3945370,0.0000000,0.0000000,0.0000000,0.0999890,0.0513103,0.0000000,0.0000000,0.0070916,0.0000000,0.0000000,0.0000000,0.0513103,0.0000000,0.0000000,0.0070916,0.0000000,0.0000000,0.0000000,0.0513103,0.0000000,0.0000000,0.0070916,0.0070916,0.0000000,0.0000000,0.0019701,0.0000000,0.0000000,0.0000000,0.0070916,0.0000000,0.0000000,0.0019701,0.0000000,0.0000000,0.0000000,0.0070916,0.0000000,0.0000000,0.0019701
41.4310380,1.0498501,,-0.9364956,-0.0433683,0.0011894,0.0001663,0.0007946,-0.0069517,0.0058745,,,,0.3333938,-7.1824918,-21.3945370,0.0000000,0.0000000,0.0000000,0.0209970,0.0516081,0.0000000,0.0000000,0.0071330,0.0000000,0.0000000,0.0000000,0.0516081,0.0000000,0.0000000,0.0071330,0.0000000,0.0000000,0.0000000,0.0516081,0.0000000,0.0000000,0.0071330,0.0071330,0.0000000,0.0000000,0.0019758,0.0000000,0.0000000,0.0000000,0.0071330,0.0000000,0.0000000,0.0019758,0.0000000,0.0000000,0.0000000,0.0071330,0.0000000,0.0000000,0.0019758
41.4437050,1.4499501,,-0.9677122,-0.0448140,0.0012078,0.0002402,0.0069815,-0.0026137,-0.0017014,,,,0.3333938,-7.1824918,-21.3945370,0.0000000,0.0000000,0.0000000,0.0289990,0.0520218,0.0000000,0.0000000,0.0071904,0.0000000,0.0000000,0.0000000,0.0520218,0.0000000,0.0000000,0.0071904,0.0000000,0.0000000,0.0000000,0.0520218,0.0000000,0.0000000,0.0071904,0.0071904,0.0000000,0.0000000,0.0019838,0.0000000,0.0000000,0.0000000,0.0071904,0.0000000,0.0000000,0.0019838,0.0000000,0.0000000,0.0000000,0.0071904,0.0000000,0.0000000,0.0019838
41.4649270,1.0500500,,-0.9833204,-0.0455369,0.0011946,0.0003000,0.0090526,-0.0065025,0.0003700,,,,0.3333938,-7.1824918,-21.3945370,0.0000000,0.0000000,0.0000000,0.0210010,0.0523238,0.0000000,0.0000000,0.0072321,0.0000000,0.0000000,0.0000000,0.0523238,0.0000000,0.0000000,0.0072321,0.0000000,0.0000000,0.0000000,0.0523238,0.0000000,0.0000000,0.0072321,0.0072321,0.0000000,0.0000000,0.0019896,0.0000000,0.0000000,0.0000000,0.0072321,0.0000000,0.0000000,0.0019896,0.0000000,0.0000000,0.0000000,0.0072321,0.0000000,0.0000000,0.0019896
41.4850780,1.0002999,,-0.9911246,-0.0458983,0.0011608,0.0003495,0.0083257,-0.0013286,-0.0007916,,,,0.3333938,-7.1824918,-21.3945370,0.0000000,0.0000000,0.0000000,0.0200060,0.0526132,0.0000000,0.0000000,0.0072720,0.0000000,0.0000000,0.0000000,0.0526132,0.0000000,0.0000000,0.0072720,0.0000000,0.0000000,0.0000000,0.0526132,0.0000000,0.0000000,0.0072720,0.0072720,0.0000000,0.0000000,0.0019950,0.0000000,0.0000000,0.0000000,0.0072720,0.0000000,0.0000000,0.0019950,0.0000000,0.0000000,0.0000000,0.0072720,0.0000000,0.0000000,0.0019950
41.5049930,1.0001000,,-0.9950266,-0.0460791,0.0011344,0.0004189,0.0079394,-0.0101324,-0.0021048,,,,0.3333938,-7.1824918,-21.3945370,0.0000000,0.0000000,0.0000000,0.0200020,0.0529041,0.0000000,0.0000000,0.0073119,0.0000000,0.0000000,0.0000000,0.0529041,0.0000000,0.0000000,0.0073119,0.0000000,0.0000000,0.0000000,0.0529041,0.0000000,0.0000000,0.0073119,0.0073119,0.0000000,0.0000000,0.0020005,0.0000000,0.0000000,0.0000000,0.0073119,0.0000000,0.0000000,0.0020005,0.0000000,0.0000000,0.0000000,0.0073119,0.0000000,0.0000000,0.0020005
